time,seconds_elapsed,z,y,x
1739985107875533000,0.021532958984375,-0.4795674772620201,-0.1174189033307135,0.15744458771627395
1739985107885557200,0.03155712890625,-0.44618601666390895,0.010178060469403862,0.18747677441909907
1739985107895580200,0.041580078125,-0.31292554720938204,0.04950893099121749,0.18656861006561665
1739985107905603000,0.05160302734375,-0.09005494945645331,0.007048018815368414,0.08902673891987652
1739985107915627300,0.061627197265625,0.14029109874367712,0.05493285573609173,0.02919847582504153
1739985107925650200,0.071650146484375,0.34204233610033985,0.07688377158567308,-0.002829012880846858
1739985107935673300,0.08167333984375,0.43922319191396236,0.06414820865318178,0.0056575873702764505
1739985107945697000,0.091697021484375,0.4282096304684877,0.03174019619710743,-0.010581818964704871
1739985107955720200,0.10172021484375,0.3318839301794767,0.015312646878883241,0.005763020506128668
1739985107965743000,0.1117431640625,0.15277356369793413,-0.043905046569555996,-0.008322313067503273
1739985107975767000,0.12176708984375,-0.03682546357214451,-0.017827844570204615,0.011098426717333494
1739985107985790200,0.131790283203125,-0.11734861457347869,-0.016294862849265335,0.012909165933728216
1739985107995813000,0.141813232421875,-0.14109540086388586,-0.024397359153628347,0.041186106467060744
1739985108005837300,0.15183740234375,-0.12379881362617015,-0.005409457828104496,0.09169515441153198
1739985108015860000,0.16185986328125,-0.05582067142128944,0.01870090107768774,0.1425739489838481
1739985108025883100,0.171883056640625,0.027630934247374533,0.02534815707243979,0.09242566064316779
1739985108035906000,0.181906005859375,0.07516717692613602,0.041402269968390464,0.07853471713047475
1739985108045930200,0.19193017578125,0.14534721308946608,0.066882382857427,0.07872260438539087
1739985108055953200,0.201953125,0.15414543657302857,0.06888590469956397,0.0656213864782825
1739985108065976000,0.21197607421875,0.09615209728777407,0.05277852724641561,0.0626974618555978
1739985108076000300,0.222000244140625,0.03979425024986267,0.025576851261779665,0.10307791449557989
1739985108086023200,0.232023193359375,0.013613514810800552,-0.012970175405964254,0.07133351704739034
1739985108096046300,0.24204638671875,0.0493260487049818,-0.02068681419789791,-0.00534684092067182
1739985108106070300,0.2520703125,0.08257949900925159,-0.009991817182302474,-0.029922186989709734
1739985108116093200,0.26209326171875,0.1301841307491064,0.02969999560639262,0.031642179182730615
1739985108126116400,0.272116455078125,0.16647300322651862,0.02497976215146482,0.10583411786854266
1739985108136140000,0.28214013671875,0.1880640727877617,0.016766937340423463,0.15877035642731935
1739985108146163200,0.2921630859375,0.18165771287679672,0.017042320215702057,0.131407388933748
1739985108156186000,0.30218603515625,0.13176058628559112,0.011363763122633099,0.05803140627332031
1739985108166210000,0.3122099609375,0.1369984869390726,0.012928747417032718,0.09302556276507674
1739985108176233000,0.32223291015625,0.1434907715678215,0.0030191286254674194,0.08384371025878935
1739985108186256100,0.332256103515625,0.09714812258780002,0.009336641209200023,0.05855265366844833
1739985108196280300,0.3422802734375,0.0911667100906372,-0.0012194587923586367,0.034083215659298
1739985108206303200,0.35230322265625,0.12296294732391834,-0.003229045049101114,0.1051430303318426
1739985108216326100,0.362326171875,0.08331891919970512,-0.00959989525526762,0.06049253568984568
1739985108226350000,0.37235009765625,0.06935936743021011,-0.030031346452608704,0.031898455498740076
1739985108236373200,0.382373291015625,-0.010705518409609795,-0.05576733379885554,0.05036189455874264
1739985108246396200,0.392396240234375,-0.0948614729553461,-0.04836377954408526,0.06206712806280702
1739985108256419000,0.402419189453125,-0.06553308714032173,-0.02747618207708001,0.052773156951554115
1739985108266443300,0.412443359375,-0.03490297107696533,-0.03952149772308767,0.008940846824645996
1739985108276463400,0.42246337890625,-0.08376315583586692,-0.07308021458424627,-0.009163622729852794
1739985108286486300,0.432486328125,-0.1229080022662878,-0.06575191752277314,0.01563972340878099
1739985108296510500,0.442510498046875,-0.12008066988587379,-0.0723135410606861,0.061812605312466615
1739985108306533400,0.452533447265625,-0.15141513482630253,-0.06395495110340416,0.0811443516395986
1739985108316556500,0.462556640625,-0.2046849527209997,-0.09700776426903902,0.03293415522202849
1739985108326580200,0.472580322265625,-0.27579496321082114,-0.09289207257851957,-0.026038440891541538
1739985108336603400,0.482603271484375,-0.29971126084923744,-0.0709349461838603,-0.005606514770165085
1739985108346626300,0.492626220703125,-0.2901876457005739,-0.04618431661315262,0.02992405015323311
1739985108356650200,0.502650146484375,-0.3106879974156618,-0.04253521952107549,0.034798305126093325
1739985108366673400,0.51267333984375,-0.3778080614864826,-0.009628463762626051,0.03606083587519824
1739985108376696300,0.5226962890625,-0.4580915585130453,-0.03414111985899508,0.009605046354420483
1739985108386720500,0.532720458984375,-0.4480144011348486,-0.01756831685118377,0.02437375908233225
1739985108396743400,0.542743408203125,-0.4240665393143892,0.004315159785374998,0.009486169215105474
1739985108406766300,0.552766357421875,-0.3544751166939735,-0.03924604178257286,-0.02150043213572353
1739985108416790500,0.56279052734375,-0.30566578533947464,-0.020428017131239175,0.012370309816673397
1739985108426813400,0.5728134765625,-0.1996276693314314,0.01559307125546038,0.02153703781906515
1739985108436836600,0.582836669921875,-0.09314882381856442,-0.011593041833862661,0.06497611084468663
1739985108446860300,0.5928603515625,-0.06746376294195651,-0.0197767136156559,0.044064219186641274
1739985108456883500,0.602883544921875,0.0029711247652769086,-0.027964696246385572,0.010783004092611372
1739985108466906400,0.61290625,0.044077042135596274,0.008536357676982879,0.009638765960931777
1739985108476929500,0.622929443359375,0.10782441490292549,-0.004769187163189054,0.0017523600926622747
1739985108486953200,0.632953125,0.14113222574293613,-0.03364310720898211,-0.03099171591736376
1739985108496976400,0.642976318359375,0.11342647269368171,-0.018029577687382697,-0.056497949628345666
1739985108506999300,0.652999267578125,0.11550035635828972,-0.003621405367553234,-0.014573226688429712
1739985108517023200,0.663023193359375,0.13297989894747733,0.024449746927991508,0.044367366851679975
1739985108527046400,0.67304638671875,0.11693828020691871,0.03198014243282377,0.08297368595860898
1739985108537069300,0.6830693359375,0.12766717949211598,0.010086728924140333,0.06647898968830704
1739985108547093500,0.693093505859375,0.17295944263637064,0.03295315218344331,0.03155769750336185
1739985108557116200,0.7031162109375,0.2759241425484419,0.03916822730600834,0.008463529902789741
1739985108567139300,0.713139404296875,0.37612346940040586,0.04681048568747937,-0.04733681111652404
1739985108577163500,0.72316357421875,0.45522097151279445,0.014882219572365282,-0.033162246623169626
1739985108587186400,0.7331865234375,0.4271592446327209,-0.020893881077319383,0.08797061746306717
1739985108597209300,0.743209228515625,0.38530572376549244,-0.00024725275933742524,0.24883292293464762
1739985108607233300,0.7532333984375,0.13559154275059698,0.013759645283222198,0.3500255899392068
1739985108617256400,0.76325634765625,-0.053692427220940586,-0.03491049679629504,0.3053425082018599
1739985108627279400,0.773279296875,-0.18334522757232188,-0.12095014619678258,0.2401888305668719
1739985108637303300,0.78330322265625,-0.4155032936304807,-0.23721111166402697,0.22453940774798392
1739985108647326500,0.793326416015625,-0.6702344260245561,-0.2769671487953514,0.11769417660813777
1739985108657349400,0.803349365234375,-1.0287456663668155,-0.2851122421324253,-0.004216302520781755
1739985108667372500,0.81337255859375,-1.4833254173666237,-0.39771819222345944,-0.10116430855975486
1739985108677396200,0.823396240234375,-1.7954250351458787,-0.5939866873200983,-0.084276110326685
1739985108687419400,0.83341943359375,-2.1198820301949977,-0.5800389355862513,-0.07490245244218967
1739985108697442300,0.8434423828125,-2.740851197791099,-0.4088209297897294,-0.0798250583351124
1739985108707466200,0.85346630859375,-3.326484263589978,-0.5032230416050181,-0.09852235181676224
1739985108717489400,0.863489501953125,-3.8963124420136213,-0.7633882913444191,-0.07349627087211702
1739985108727512300,0.87351220703125,-4.249222209087014,-0.844167097607255,0.06670829579900019
1739985108737536500,0.88353662109375,-4.316956021142006,-0.45065541716292495,0.4296308223780244
1739985108747559400,0.893559326171875,-4.6683121290326115,-0.49630949935689567,0.38336788757070894
1739985108757582300,0.903582275390625,-4.905011930173635,-0.8001998725216836,0.04205997125871945
1739985108767606300,0.913606201171875,-5.001403681436181,-0.8650385476570576,-0.11727730290293693
1739985108777629400,0.92362939453125,-5.061584301632642,-0.7499230989631265,-0.163586889863573
1739985108787652400,0.93365234375,-5.001016727945208,-0.7242986822325735,-0.19207624930487943
1739985108797676300,0.94367626953125,-4.997881937050819,-0.6301657427474856,0.007455567569797858
1739985108807699500,0.953699462890625,-4.685789333534241,-0.5572400246052072,0.41901126521881665
1739985108817722400,0.963722412109375,-4.385326377534866,-0.47753783459793775,0.35536508780363946
1739985108827746300,0.973746337890625,-4.410202460116148,-0.4864619129508733,0.15064880836261435
1739985108837769200,0.983769287109375,-4.25687652323246,-0.38558614814206954,-0.0017456563572399318
1739985108847792400,0.99379248046875,-3.9540515142768617,-0.18733400494754313,-0.06059787749415263
1739985108857816600,1.003816650390625,-3.6019010411381718,-0.04764094516225159,-0.054847077148780225
1739985108867839200,1.013839111328125,-3.214490454047918,-0.15833448576070366,-0.031952067115809765
1739985108877862400,1.0238623046875,-2.7775170868873595,-0.22711853752098976,0.07436011659326032
1739985108887885300,1.03388525390625,-2.4521032295048237,-0.3599555208664387,0.2079698926758021
1739985108897909500,1.043909423828125,-2.053011556971073,-0.4466122792519629,0.1897314032117836
1739985108907932200,1.05393212890625,-1.7205132942855357,-0.3291010945279151,0.18377423010673372
1739985108917955300,1.063955322265625,-1.36292735209465,0.031258550160005685,0.3431239207919687
1739985108927979500,1.0739794921875,-1.0370412010252474,0.08384856909699738,0.4409680262872949
1739985108938002400,1.08400244140625,-0.854323749962449,-0.08274184996411203,0.2659616793247871
1739985108948025300,1.094025390625,-0.609853314819932,-0.33842794499546286,-0.0671797766351141
1739985108958049300,1.10404931640625,-0.24136837747395037,-0.22688290213420986,-0.010298709440696984
1739985108968072400,1.114072509765625,0.16365794580578802,-0.03341872386857867,0.41060101813953365
1739985108978095400,1.124095458984375,0.5082879603117704,0.2353773203656077,0.7002712523698806
1739985108988119300,1.134119384765625,0.9009259266614913,0.49923386237099765,0.7724556871581822
1739985108998142500,1.144142578125,1.2300661110907791,0.696502401355654,0.6829208891183137
1739985109008165400,1.154165283203125,1.3136264378309248,1.0266517628274858,0.472204181952402
1739985109018189300,1.164189208984375,1.8363970970034598,1.3075979713216423,0.4130989359024912
1739985109028212200,1.174212158203125,2.3527210642546414,1.087955834095925,0.04440041060475632
1739985109038235400,1.1842353515625,2.7402929793864486,0.9442483510375023,-0.10021436002431437
1739985109048259300,1.19425927734375,3.10361191227138,1.1072275207988918,-0.07474013345337006
1739985109058282500,1.204282470703125,3.3946611432373524,1.0902356155961752,-0.07962426593285053
1739985109068305200,1.21430517578125,3.519538984271884,1.2372601142480968,0.0076864354499150064
1739985109078328300,1.224328369140625,3.7384856865793465,1.3433521524004637,0.0340857889255858
1739985109088352500,1.2343525390625,4.124898494803905,1.4150933004006743,-0.027007336156046946
1739985109098375400,1.24437548828125,4.182003945338725,1.5081681822001933,-0.043516453677345995
1739985109108398300,1.2543984375,4.174375350156426,1.459272341606021,-0.04789811652740463
1739985109118422300,1.26442236328125,4.079791525098681,1.4970312866359947,-0.502981122607924
1739985109128445400,1.274445556640625,4.155348578125238,1.3775932985678314,-0.16967479494251309
1739985109138468400,1.28446826171875,3.50809463019371,1.278450787292421,-0.6245595933035015
1739985109148492300,1.2944921875,3.340864086598158,1.8286539355307816,-0.6278920987270772
1739985109158515500,1.304515380859375,3.2856215073257684,1.7971549276784062,-0.3335154769040644
1739985109168538400,1.314538330078125,3.313918212005496,1.5237188025534152,-0.39069176418539137
1739985109178562300,1.324562255859375,3.506839661696553,1.367780345083773,-0.22518895769789812
1739985109188585200,1.334585205078125,3.426290207210183,1.2548445785164832,0.04355359821680467
1739985109198608400,1.3446083984375,3.2392958094805477,1.1292042286768555,0.07352017690408974
1739985109208632600,1.354632568359375,3.103946258792281,0.9609545711666345,-0.05437939570494927
1739985109218655200,1.3646552734375,3.034847588124871,0.8447735390678047,-0.08637012346386909
1739985109228678400,1.374678466796875,3.0118051507115364,0.7879670714795589,-0.012329840808967128
1739985109238701300,1.384701416015625,2.8440730873346327,0.5909118829846381,0.0233511471694801
1739985109248725500,1.3947255859375,2.5489023925244805,0.43287353062629697,-0.0441151730557438
1739985109258748400,1.40474853515625,2.258153021287918,0.4254194152280688,-0.022504704674286766
1739985109268771300,1.414771240234375,2.079178848406672,0.4256786506861448,0.046572411748440935
1739985109278795500,1.42479541015625,1.6931448103666304,0.33709377378225325,-0.03742037899168208
1739985109288818700,1.434818603515625,1.2713655052065849,0.3257756764322519,0.077328565344261
1739985109298841600,1.444841552734375,1.2857903364002703,0.22142215251028535,0.1529004232143052
1739985109308865500,1.454865478515625,1.5194085381388662,0.12684241910576818,-0.00878919536031317
1739985109318888400,1.464888427734375,1.699028023186326,0.19305735103040933,-0.01841810664751101
1739985109328911600,1.47491162109375,1.6973299870967864,0.2540770523995161,0.09117342295921407
1739985109338935600,1.484935546875,1.57316993894279,0.28612112691402436,0.11330945871789008
1739985109348958500,1.49495849609375,1.3468360489934683,0.19247166009694336,0.07241983727964106
1739985109358981600,1.504981689453125,1.0157353781461715,0.1688660358428955,0.13972713558482935
1739985109369005600,1.515005615234375,0.682635057914257,0.17871581420600413,0.15981128031499683
1739985109379028500,1.525028564453125,0.44246495031416416,0.16981442260891197,0.15020846245028077
1739985109389051400,1.535051513671875,0.26057401320338247,0.10138093785196542,0.09595249219560063
1739985109399075600,1.54507568359375,0.1627139429539442,0.07498802096694708,-0.06281118789575994
1739985109409098500,1.555098388671875,0.20971008740663527,0.025662264522910115,-0.11428168301722035
1739985109419121400,1.565121337890625,0.15789280640780926,-0.015190847130119799,-0.15205013566105627
1739985109429144300,1.575144287109375,0.0635562341094017,-0.013013795351982115,-0.17232468839678913
1739985109439168500,1.58516845703125,-0.0011176058530807495,-0.05337444731295109,-0.14184684028569608
1739985109449191700,1.595191650390625,-0.05992986030578613,-0.07364420514255762,-0.17401611208245157
1739985109459214300,1.60521435546875,-0.14999825376570225,-0.012670096480846405,-0.17429905720967798
1739985109469238500,1.615238525390625,-0.20422961016893385,0.009345335972309111,-0.11483354474632068
1739985109479261400,1.625261474609375,-0.32505963711738584,0.02719225056916475,-0.12931355845965445
1739985109489284600,1.63528466796875,-0.4578834687203169,0.040679508651793,-0.1419527940113563
1739985109499308500,1.64530859375,-0.5117179347604512,0.038361002576351166,-0.17057101312987505
1739985109509331500,1.65533154296875,-0.4866349314302206,0.031359891642630096,-0.17202921258155254
1739985109519354600,1.665354736328125,-0.3728285195082426,0.010704057104885577,-0.13518905376377516
1739985109529378300,1.67537841796875,-0.2827215476036072,0.005425532180070877,-0.12161046413588338
1739985109539401500,1.6854013671875,-0.24069500825703144,-0.008158756536245346,-0.1622175560054369
1739985109549424400,1.69542431640625,-0.14214754026532173,-0.03158347126543522,-0.12788125150105914
1739985109559448600,1.705448486328125,-0.056959320062398906,-0.004067395569384098,-0.08357387120830825
1739985109569471500,1.715471435546875,-0.02512391986250877,-0.0828887110888958,-0.09834583533923141
1739985109579494400,1.725494384765625,-0.12340543039441108,-0.10462006590366363,-0.05329188359603285
1739985109589518600,1.7355185546875,-0.2359995439171791,-0.12002250995784997,0.015230695083318277
1739985109599541500,1.74554150390625,-0.23958441666662691,-0.11143383757174015,0.04213105003382079
1739985109609564400,1.755564453125,-0.17884616258740424,-0.10276362438201904,0.044291168943466616
1739985109619587300,1.76558740234375,-0.18362112190425395,-0.10552519804984331,0.0490902397882659
1739985109629611500,1.775611572265625,-0.19257775081992148,-0.09388473687767981,0.05883951691896654
1739985109639634700,1.785634765625,-0.19191373395323752,-0.050286418169736856,0.10291361817880533
1739985109649657600,1.79565771484375,-0.2564250768303871,-0.04117927486747503,0.05936949560982175
1739985109659681500,1.805681640625,-0.3194634245455265,-0.05926116726398468,-0.008041340701654553
1739985109669704400,1.815704345703125,-0.27887890070080756,-0.050638300347328184,-0.01556926112161018
1739985109679727600,1.8257275390625,-0.28299159671664237,-0.048240591555833816,-0.03212718622069806
1739985109689751300,1.835751220703125,-0.25032675995528697,-0.050315936525166034,-0.04645372640537098
1739985109699774500,1.8457744140625,-0.1659387502193451,-0.00584931055009365,-0.0495493086673785
1739985109709797400,1.85579736328125,-0.1599549996346235,-0.005423778614401817,-0.13008340118783526
1739985109719821600,1.865821533203125,-0.22644261102080343,0.003972118501365185,-0.17801055201347915
1739985109729844500,1.875844482421875,-0.27858780879974365,0.057174131856858726,-0.18498912232182918
1739985109739867400,1.885867431640625,-0.24318214889764783,0.07143412787765265,-0.13327740232301874
1739985109749891600,1.8958916015625,-0.17677052535712717,0.0718611211180687,-0.044422097280179144
1739985109759914500,1.90591455078125,-0.07334054602086544,0.10733926173448562,0.0026875448838109147
1739985109769937400,1.9159375,-0.0025368250012397764,0.16297230162918566,0.002911476133065298
1739985109779961600,1.925961669921875,-0.025852234137058255,0.16687106263339518,0.00015503986466210336
1739985109789984500,1.935984619140625,0.07982230925559997,0.19907646518945693,-0.0009873533698031677
1739985109800007700,1.946007568359375,0.3575836041033268,0.24261808527410028,0.010413266597921028
1739985109810030300,1.9560302734375,0.5958639524340629,0.2835314026817679,-0.0067269747340353205
1739985109820054500,1.966054443359375,0.8015718184620142,0.3410784595042467,-0.008648426049598493
1739985109830077400,1.976077392578125,0.9989356345146894,0.39591830319464205,0.044870895927026866
1739985109840100600,1.9861005859375,1.2221604525327683,0.4413885532543063,0.0981291877807118
1739985109850124500,1.99612451171875,1.48519764097929,0.5000821497634053,0.15304985075551084
1739985109860147500,2.0061474609375,1.7227759785205126,0.6164663032189012,0.1599518395631574
1739985109870170600,2.016170654296875,1.9363439103990792,0.6976572704792022,0.1106895950756967
1739985109880194300,2.0261943359375,2.1468431023567915,0.733803227354586,0.06651430759686044
1739985109890217500,2.036217529296875,2.2041507974654433,0.7467524330377578,0.12634901869879103
1739985109900240400,2.046240478515625,2.5422873582988976,0.8642088918998837,0.22363730780910698
1739985109910264600,2.0562646484375,2.9274451980262994,0.958113210260868,0.1591268234484829
1739985109920287500,2.06628759765625,2.9772797807753086,0.9242243846625089,0.06702214295456652
1739985109930310400,2.076310302734375,3.123197487229109,0.9307461876466869,0.0013001125383365433
1739985109940334600,2.08633447265625,3.2116590300142764,0.884570419666171,-0.12320419046757743
1739985109950357500,2.096357421875,3.2732822502344843,0.8542094759330153,-0.23167746120067312
1739985109960380700,2.106380615234375,3.4253339293986556,0.90178634288311,-0.2353484413309954
1739985109970404400,2.116404296875,3.592926876565814,0.9438622743293642,-0.29592746799420566
1739985109980427500,2.126427490234375,3.6597003191560504,0.9546092937931417,-0.41442441235259175
1739985109990450400,2.136450439453125,3.7044717732965946,0.9775757433608174,-0.44588056744392957
1739985110000473600,2.1464736328125,3.859512112882733,0.9945762702614068,-0.39631124803498385
1739985110010497500,2.15649755859375,3.9469671089738605,1.0456892023831605,-0.351891931800358
1739985110020520400,2.1665205078125,3.8769384639799593,1.1333934970602393,-0.30977902934458107
1739985110030543600,2.176543701171875,3.608267653560638,1.214219722661376,-0.28777567092170936
1739985110040567300,2.1865673828125,3.3993460861831903,1.2459373417004942,-0.39855917309224603
1739985110050590500,2.196590576171875,3.19883929592967,1.146219368624687,-0.535697105034627
1739985110060613400,2.20661328125,3.335002501088381,1.5864904621563851,-0.2826238593827933
1739985110070637600,2.216637451171875,3.3581624274015422,1.8011083414793014,-0.15649868516828863
1739985110080660500,2.226660400390625,3.6232378436774013,1.8858599238306284,-0.22281875796783715
1739985110090683400,2.236683349609375,3.8250966330617664,2.020942640276253,-0.37968240399099884
1739985110100707600,2.24670751953125,3.905001359903812,1.904327600674331,-0.6042934887357055
1739985110110730500,2.25673046875,4.134878037026525,1.8297598509460686,-0.6934308849558234
1739985110120753400,2.26675341796875,4.30159946205616,1.8135927061297,-0.6411936249792576
1739985110130777600,2.276777587890625,4.404959298765659,1.6299438194356857,-0.42069552851133046
1739985110140800500,2.286800537109375,4.558078899422288,1.3612106113046407,-0.037544480295386165
1739985110150823700,2.29682373046875,4.200349749368429,1.2954782021999358,0.490072723859176
1739985110160847400,2.306847412109375,3.7446219973772763,1.1413060237504542,0.8013812643259763
1739985110170870500,2.31687060546875,3.476026005759835,1.006393695435673,1.1679987272996455
1739985110180893400,2.3268935546875,2.7382144195467233,0.5120780002444982,0.9639382631525397
1739985110190917400,2.33691748046875,1.4845155039340256,0.15453765076100826,0.4674741577558219
1739985110200940500,2.3469404296875,0.34002690462470053,-0.03098448245897889,0.3749336385613307
1739985110210963500,2.35696337890625,-0.6330366220086813,-0.21086378748640416,0.07406454944647849
1739985110220987600,2.366987548828125,-1.3377198456019161,-0.37987215440943833,-0.02585796062494628
1739985110231010600,2.377010498046875,-2.1050907037764786,-0.37329964415133,0.06500018127344083
1739985110241033500,2.387033447265625,-2.897482605960965,-0.4686636598013341,0.03806978737770114
1739985110251056400,2.397056396484375,-3.812648654899001,-0.4386030141890049,0.03667251519986894
1739985110261080600,2.40708056640625,-4.780628010135889,-0.2929332911469042,-0.11751721260603516
1739985110271103500,2.417103515625,-6.138837686058879,-0.3054585723295808,-0.20248839252479373
1739985110281127000,2.427126953125,-7.151932194307446,-0.5811777668904513,-0.36609837100300935
1739985110291150800,2.43715087890625,-7.848786331710219,-0.7782546557605267,-0.35751470358557996
1739985110301174000,2.447174072265625,-8.286298043531179,-0.6806548438824713,-0.24565376317556947
1739985110311197000,2.457197021484375,-8.594977623733877,-0.6422239909403026,-0.19903554865717887
1739985110321220900,2.467220947265625,-8.700387963232398,-0.7946027101017534,-0.12781612297613174
1739985110331243800,2.477243896484375,-8.5941318205595,-0.919691271277517,-0.1159418165154755
1739985110341267000,2.487266845703125,-8.27275817847848,-1.0466478182822465,-0.2032604363432154
1739985110351291000,2.497290771484375,-7.622775682365894,-1.111299811739102,-0.20498897716887293
1739985110361313800,2.507313720703125,-6.822981979492306,-1.0358487033050507,-0.07602439654367044
1739985110371337000,2.5173369140625,-6.1278609494924545,-0.9757039581395686,0.07440218390300869
1739985110381361000,2.52736083984375,-5.424266105657815,-1.0281037152014671,0.1339515387249179
1739985110391383800,2.5373837890625,-4.6221185331344605,-0.9705123077806085,0.1876716576703824
1739985110401406700,2.54740673828125,-3.8689568175762887,-0.8770552217304706,0.05951726091690361
1739985110411431000,2.557430908203125,-3.1898809134483335,-0.860953981757164,-0.015030194942001253
1739985110421454000,2.5674541015625,-2.6423300332844257,-0.8812930054306983,0.0910731683219783
1739985110431476700,2.577476806640625,-2.193133728888631,-0.8756110142715274,0.2793846034669317
1739985110441501000,2.5875009765625,-1.839638270881772,-0.8589953219700605,0.36507154870592057
1739985110451523800,2.59752392578125,-1.4727368033349513,-0.7868041651800275,0.33973939292021094
1739985110461547000,2.607547119140625,-1.1803817504674197,-0.7068813181594014,0.37535343487598
1739985110471571000,2.617571044921875,-1.0321697955965996,-0.6236847101651132,0.3445113930949941
1739985110481593900,2.62759375,-0.9392056806951761,-0.534674009064585,0.2456756462138146
1739985110491617000,2.637616943359375,-0.7685773113548755,-0.4516148002469912,0.1927203376283869
1739985110501640000,2.647639892578125,-0.5407908845096826,-0.34289676097258925,0.2251632387347519
1739985110511663900,2.657663818359375,-0.375559990298748,-0.197809075602144,0.17888037538425997
1739985110521686800,2.667686767578125,-0.25656243947446344,-0.12647742171827703,0.16783610827326773
1739985110531710000,2.6777099609375,-0.1123158811032772,-0.09456683739032595,0.18535196428485215
1739985110541734000,2.68773388671875,0.0357493587732315,-0.06050097472462803,0.17764584688693283
1739985110551756800,2.6977568359375,0.20682488735914228,-0.009275193345546722,0.10971561721069738
1739985110561780000,2.707780029296875,0.3472358130902052,0.025915325968526304,0.125266146232374
1739985110571804000,2.717803955078125,0.5206032520055771,0.03615443244278431,0.1416938416810706
1739985110581826800,2.727826904296875,0.6065268007457256,0.02549249744657427,0.14905974907288327
1739985110591849700,2.737849609375,0.6356669705122708,0.029014534092880784,0.1626433436694555
1739985110601874000,2.7478740234375,0.7125859595417976,0.11398341245669871,0.20205929865883662
1739985110611897000,2.75789697265625,0.7408902630060911,0.1456543793424964,0.236470157103613
1739985110621919700,2.767919677734375,0.6737450644940137,0.15951635248903184,0.23676278337463735
1739985110631944000,2.77794384765625,0.6225824480116366,0.18322846932485698,0.26452381027508526
1739985110641966800,2.787966796875,0.6108697983860969,0.1984424781348556,0.2827556325362995
1739985110651990000,2.797989990234375,0.6576438245207071,0.22397844939697534,0.21104714469667524
1739985110662013700,2.808013671875,0.7227063715398311,0.19014179237727075,0.07962053047264926
1739985110672036900,2.818036865234375,0.6835679548501968,0.20677721229251472,0.05018326832251623
1739985110682059800,2.828059814453125,0.6017711306512356,0.17327292903233318,0.0198396867161151
1739985110692083700,2.838083740234375,0.5138210445195436,0.11772650797516107,0.07609974506851286
1739985110702107000,2.84810693359375,0.4326975895375013,0.14910974396076052,0.14153800266538746
1739985110712129800,2.8581298828125,0.3574450724154711,0.14571272193361073,0.13984425002532078
1739985110722153000,2.868153076171875,0.29771219598650933,0.13651611024960875,0.14761334965685383
1739985110732177000,2.878177001953125,0.2308750405102968,0.1415107036665082,0.1474495556635782
1739985110742199800,2.88819970703125,0.19106617721319197,0.08038184283450245,0.1110177310515195
1739985110752222700,2.89822265625,0.24522096124887466,0.08269881453998386,0.12533058977071196
1739985110762247000,2.908246826171875,0.3233633545935154,0.09187986332867294,0.12415266856513917
1739985110772270000,2.91827001953125,0.28051147033870216,0.04685008704550564,0.10211911593340336
1739985110782292700,2.928292724609375,0.07296528296768665,-0.00028513708431273695,0.055289761148672546
1739985110792317000,2.93831689453125,-0.043425884750485415,-0.04726042141206562,-0.0025409897197037935
1739985110802339800,2.94833984375,-0.08786883758902549,-0.03908906112257391,-0.014166819578316062
1739985110812363000,2.958363037109375,-0.10888590665459633,-0.06690854021199047,-0.012605543344654142
1739985110822387000,2.968386962890625,-0.0710071346372366,-0.04221899317875504,-0.03692046664552763
1739985110832409900,2.978409912109375,-0.06128887369930744,-0.014711283452250062,-0.05865668029850348
1739985110842433000,2.98843310546875,-0.01821077947318554,-0.054634384246170516,-0.09083592550000175
1739985110852456700,2.998456787109375,0.0036368951976299283,-0.07807027795650065,-0.10276855628546326
1739985110862480000,3.00847998046875,0.02224398051202297,-0.07719247220866382,-0.07820382294198498
1739985110872502800,3.018502685546875,0.07066577385365963,-0.08315196513496338,-0.062297521018888795
1739985110882527000,3.02852685546875,0.06300093831419945,-0.07605857280790805,-0.12316460737586021
1739985110892550000,3.0385498046875,0.05253156674802303,-0.09788264740742743,-0.19394606176475063
1739985110902572800,3.04857275390625,0.04073766857981682,-0.12498152060471475,-0.14538049430456013
1739985110912597000,3.058596923828125,0.013807576078176497,-0.11467552290670573,-0.05432636860976927
1739985110922620000,3.068619873046875,0.005679799202084541,-0.08027578864414245,-0.01659548063050024
1739985110932642800,3.078642822265625,0.012909165933728216,-0.107486342054978,-0.054283141389396036
1739985110942666800,3.088666748046875,0.019077040913701056,-0.13508337403275072,-0.11244729806375689
1739985110952690000,3.09868994140625,0.05697568667531013,-0.08017342424821108,-0.0654496557737235
1739985110962712800,3.108712890625,0.08590659760534763,-0.06691195601178333,-0.019040636159759015
1739985110972736000,3.118736083984375,0.05678571706116199,-0.03141755838030949,-0.03763108086660504
1739985110982760000,3.128760009765625,-0.008826280534267424,0.006385444987099617,-0.03981950342212803
1739985110992782800,3.138782958984375,-0.01815232728421688,-0.0007681530945934354,0.018001721566077322
1739985111002806000,3.148805908203125,-0.034523616370558736,0.02164908335879445,0.054714646408148104
1739985111012829700,3.15882958984375,-0.07725859624743461,0.026530571790039537,0.08813428359217941
1739985111022852900,3.168852783203125,-0.15744740072786806,0.06630124023491517,0.15761336841192095
1739985111032875800,3.178875732421875,-0.27150749514997,0.05637202169373631,0.12114383300482295
1739985111042900000,3.18889990234375,-0.29824177281856534,0.01487504091290757,0.04248897835970856
1739985111052923000,3.1989228515625,-0.256499895632267,0.011499426999967545,-0.0033289800259284673
1739985111062945800,3.20894580078125,-0.18457564615011215,0.04452674039816484,-0.014655160217685623
1739985111072970000,3.218969970703125,-0.07030804645717144,0.005617456289287656,0.0012009276218246667
1739985111082993000,3.228992919921875,0.017047580912709234,0.054294795294571666,0.022186176777025682
1739985111093015800,3.239015869140625,0.01420095930993557,0.045645131702534855,-0.0029123255164362487
1739985111103040000,3.2490400390625,0.013479659298062325,0.026454949270561336,-0.04193593388709705
1739985111113063000,3.25906298828125,0.011890928801894187,0.003428074752539396,-0.037654416076419873
1739985111123086000,3.269086181640625,-0.03802081083655357,0.033839305634517224,-0.015445013687433675
1739985111133109800,3.27910986328125,-0.1092003794312477,0.02650459709856659,-0.08356529517620802
1739985111143133000,3.2891328125,-0.15092121382951734,0.019368406809400766,-0.0955391256217379
1739985111153155800,3.29915576171875,-0.10796411563456058,0.03268958761012181,-0.12694905781801788
1739985111163179800,3.3091796875,-0.054688452520966525,0.024879881973564624,-0.23640722966892644
1739985111173203000,3.319202880859375,-0.03672083415389061,0.020331644084677098,-0.37999231019038704
1739985111183225900,3.329225830078125,-0.04446867180168628,0.0003678651980124414,-0.5242106288477778
1739985111193250000,3.33925,-0.08946165973842143,-0.05017303918944672,-0.6880797331862151
1739985111203272700,3.349272705078125,-0.15480886891782283,-0.08579046041239052,-0.8859625316116958
1739985111213295900,3.3592958984375,-0.19461013343036174,-0.11331208906639367,-1.1025656664676964
1739985111223319800,3.36931982421875,-0.22338848414719104,-0.12927709890678524,-1.3564761301286519
1739985111233343000,3.379343017578125,-0.20507424429953097,-0.17445548988040535,-1.6939263161331415
1739985111243366000,3.389365966796875,-0.27360183708071706,-0.17450723833395168,-1.9786441521205007
1739985111253388800,3.399388916015625,-0.35210020425617694,-0.17213965068608522,-2.2510047569684684
1739985111263413000,3.4094130859375,-0.30233167248070236,-0.2403492270266637,-2.582972419908643
1739985111273436000,3.419435791015625,-0.2721288419187069,-0.1741450174254365,-2.8090491202265024
1739985111283457800,3.429457763671875,-0.3094043873459101,-0.15647570615150033,-2.9935999241963027
1739985111293481700,3.439481689453125,-0.2863853308081627,-0.16031038894355296,-3.0817458251610397
1739985111303505000,3.4495048828125,-0.24213176306188106,-0.11610718141132965,-3.117083680523932
1739985111313527800,3.45952783203125,-0.09327624959051609,-0.05258022819533944,-3.240250625987351
1739985111323552000,3.469552001953125,0.13197627486288546,-0.11242069318462163,-3.3608938981920478
1739985111333574700,3.47957470703125,0.25492753174901006,-0.07438388106133788,-3.482928332494199
1739985111343597800,3.489597900390625,0.2928291001200676,-0.009638400634750723,-3.604601532268524
1739985111353622000,3.4996220703125,0.30989187860190864,0.10900766987074166,-3.6423072858065364
1739985111363645000,3.50964501953125,0.3426993387043476,0.2821397656602785,-3.6032127082586287
1739985111373667800,3.519667724609375,0.18949030619859694,0.16711257977169006,-3.654693889170885
1739985111383691800,3.52969189453125,0.23682430430352686,0.43214094203542913,-3.5212042871356006
1739985111393715000,3.53971484375,0.30786651025414463,0.6414725880511105,-3.4755683251202103
1739985111403737900,3.54973779296875,0.1505184782475233,0.8053710646145046,-3.317177506062388
1739985111413761800,3.55976171875,0.17850947797894476,0.8286367893896996,-3.1603201801821585
1739985111423785000,3.569784912109375,0.1755190639913082,0.891938171955198,-2.926225885364413
1739985111433808000,3.579807861328125,-0.09489362165927887,0.8548780228443443,-2.760532634338736
1739985111443831800,3.589831787109375,-0.2788584424346685,0.6829264420762657,-2.5664520777404305
1739985111453854700,3.599854736328125,-0.6906406697154045,0.519507017734088,-2.337292024454474
1739985111463878000,3.6098779296875,-0.9351052596390247,0.6063747154565527,-1.6989720552153884
1739985111473902000,3.619902099609375,-0.7332078918099403,0.3839771055102348,-1.155297358897701
1739985111483925000,3.629925048828125,-0.3275263194918632,-0.0314226912131533,-0.8130905529506504
1739985111493948000,3.639947998046875,-0.22729952011108398,-0.1593278076469898,-0.48835503322109575
1739985111503971800,3.649971923828125,-0.021185995891690252,0.020621092017926276,0.17128873294517397
1739985111513995000,3.6599951171875,0.4834346740841865,-0.3163323599781841,0.7723413400635123
1739985111524018000,3.670017822265625,1.0566653544276952,-0.8761806308530271,0.9237731337636709
1739985111534041900,3.680041748046875,1.07968908714056,-0.3457578494921326,1.5292232451885939
1739985111544064800,3.690064697265625,1.1809095737338065,0.10194960458539426,2.115260654004663
1739985111554088000,3.700087890625,1.1657564282655715,0.4187183101542294,2.629220376342535
1739985111564110800,3.71011083984375,1.0565823523193598,0.7152681112978607,3.1759286682024594
1739985111574134800,3.720134765625,0.8378817337274551,0.7899702279955149,3.609444880646467
1739985111584158000,3.730157958984375,0.462564320012927,0.7558651292979717,3.8272707622304556
1739985111594180900,3.740180908203125,0.22766659985780716,0.7322584090653806,3.937613005173206
1739985111604204800,3.750204833984375,-0.10174655629396438,0.758004260218516,4.050329868292808
1739985111614227700,3.760227783203125,-0.3764969788879156,0.8337011601071804,4.249848232030868
1739985111624251000,3.7702509765625,-0.6393348453700542,1.0722545532256365,4.64849888279885
1739985111634275000,3.780275146484375,-0.5822942767649889,0.7653186018198728,4.725286062142253
1739985111644297700,3.790297607421875,-0.6935667862951755,0.34720118016824125,4.43290558257252
1739985111654321000,3.80032080078125,-0.8226789038985968,0.583599514144659,4.488754311044514
1739985111664344800,3.8103447265625,-0.5703484029054642,0.6541482374899089,4.449217250426114
1739985111674368000,3.820367919921875,-0.42398119911849497,0.5281635311920195,4.4410216690108175
1739985111684390700,3.830390625,-0.3074216890960932,0.416385044901073,4.334044226326048
1739985111694414800,3.840414794921875,0.0665402183562517,0.4523600291237235,3.9213007527977224
1739985111704438000,3.85043798828125,0.06407178241610527,0.3123676941309124,3.7695404577955602
1739985111714461000,3.8604609375,0.30862755775451656,0.1858924278371036,3.3515926936224103
1739985111724484900,3.87048486328125,0.43050037175416944,0.3060521543085575,2.9891224865213033
1739985111734507800,3.8805078125,0.48890170731842514,0.2837259023405611,2.7138874952808023
1739985111744531000,3.890531005859375,0.5016062905907631,0.19082652323842048,2.4572005526438354
1739985111754555000,3.900554931640625,0.5231891768455506,0.20795454897619783,2.282041846397519
1739985111764577800,3.910577880859375,0.6817763952583075,0.19225830960720777,1.892528149548173
1739985111774601000,3.92060107421875,0.6755097360789776,0.2609766757201403,1.304853641049564
1739985111784625000,3.930625,0.3772673787385225,0.2043810744035989,0.9388337055776268
1739985111794647800,3.940647705078125,0.1936222914367914,0.17209953787140547,0.6926011561334132
1739985111804670700,3.950670654296875,0.149228438436985,0.1907693131584674,0.5248961999591439
1739985111814695000,3.96069482421875,0.13764555267095566,0.19472857217825948,0.3860290696039796
1739985111824717800,3.9707177734375,0.11609949129521846,0.2008302500542253,0.24749884305298328
1739985111834741000,3.980740966796875,0.12006313422918319,0.17865232051573693,0.16576317445673047
1739985111844765000,3.990764892578125,0.11360942804515362,0.10950579211860895,0.04146171767120249
1739985111854787800,4.000787841796875,0.06936053647398949,0.07754501197338104,-0.08194567635143175
1739985111864811000,4.01081103515625,-0.0020166005194187163,0.032702173097059126,-0.16389781897626815
1739985111874834000,4.020833984375,-0.07079203058183192,-0.0013095482286065816,-0.2441505555383861
1739985111884857900,4.03085791015625,-0.10369476775228977,-0.06235168062523007,-0.31099359276611355
1739985111894880800,4.040880859375,-0.13521394160985944,-0.05964812075495719,-0.39640192199312146
1739985111904904000,4.050904052734375,-0.22728023088872432,-0.018116671448946,-0.44293216596711427
1739985111914927900,4.060927978515625,-0.29069033452570436,-0.01283398180566728,-0.42310817914362997
1739985111924950800,4.07095068359375,-0.3648924658119678,-0.032499490131810305,-0.37319881412535905
1739985111934974000,4.080973876953125,-0.44990708301365373,-0.0389154946539551,-0.3601705153239891
1739985111944998000,4.090997802734375,-0.5013087689489126,-0.053013797307014464,-0.37572168366648256
1739985111955020800,4.101020751953125,-0.519241900524497,-0.04073847229741513,-0.4196082812638953
1739985111965043700,4.111043701171875,-0.5441273354560137,0.03363010159693658,-0.42445835164356976
1739985111975068000,4.12106787109375,-0.625252544003725,0.032890389145538206,-0.39593941904790697
1739985111985091000,4.131091064453125,-0.6112164198666811,-0.014562266902998089,-0.4770515854509547
1739985111995113700,4.14111376953125,-0.5911971296668053,-0.05121398134343326,-0.5307516479890794
1739985112005138000,4.151137939453125,-0.4874737203419208,-0.045636765732988714,-0.48046705645024773
1739985112015160800,4.161160888671875,-0.32359716334939004,-0.037233313720673324,-0.42659160081259906
1739985112025184000,4.17118408203125,-0.1684557014763355,-0.05385770078524947,-0.39602176356911656
1739985112035208000,4.1812080078125,-0.0806710350394249,-0.03507935055717826,-0.32926771979909386
1739985112045230800,4.19123095703125,-0.0011059154152870177,-0.0562909192815423,-0.3508628810135647
1739985112055254000,4.20125390625,0.01950432641506195,-0.06862184693589807,-0.3354617521336302
1739985112065277700,4.211277587890625,0.003896422916650772,-0.08566650523915886,-0.26429898854326456
1739985112075300900,4.22130078125,0.002044073048233986,-0.08287344045452773,-0.21054520479021593
1739985112085323800,4.23132373046875,0.02365267826616764,-0.04354870741255581,-0.18673211179794744
1739985112095348000,4.241347900390625,0.05376315436959266,-0.017300678890943527,-0.1757910128004849
1739985112105371000,4.251370849609375,0.08283435055315494,-0.03445661554895341,-0.15931513082850723
1739985112115393800,4.261393798828125,0.1387409466922283,-0.029532237824052572,-0.12205961440918035
1739985112125418000,4.27141796875,0.17318565260767935,-0.04183912701569498,-0.1133087006660644
1739985112135441000,4.28144091796875,0.21972470094263552,0.01362944303229451,-0.03644679156903876
1739985112145464000,4.291464111328125,0.18255378493368624,0.03125884242095053,-0.009097615138802211
1739985112155487700,4.30148779296875,0.18967852224707601,0.006391454602777957,0.010573893669864628
1739985112165511000,4.311510986328125,0.1455856980204582,-0.0042968204110860825,0.07410257533534895
1739985112175533800,4.321533935546875,0.0895896700322628,0.03659910747036338,0.06576962670939974
1739985112185557800,4.331557861328125,0.09098959995806216,0.05806413949914276,0.04809750699044671
1739985112195581000,4.341580810546875,0.15913608446717262,0.052013315027579665,0.07438264808547683
1739985112205603800,4.351603759765625,0.24696283648014067,0.0515706858266145,0.09588804865726269
1739985112215627000,4.361626953125,0.3270224616229534,0.08370638414733111,0.17002497835336253
1739985112225650700,4.371650634765625,0.3731505910694599,0.12704393302723765,0.2830405686912127
1739985112235673900,4.381673828125,0.3655769409447908,0.129544225410372,0.29939971068203447
1739985112245696800,4.39169677734375,0.26804829460680485,0.08032324451506137,0.28367656503980976
1739985112255721000,4.401720947265625,0.08028232798278331,0.06416676722317934,0.2958866975924
1739985112265744000,4.411743896484375,-0.02203004550039768,0.07556326357163488,0.29010732873966916
1739985112275766800,4.421766845703125,0.03784896140098572,0.03570595802292228,0.35031324777416883
1739985112285791200,4.431791259765625,0.07753624414503574,0.04948343122377991,0.49024987052436914
1739985112295814100,4.441814208984375,0.1303372754842043,0.12295768662691116,0.6886626476407051
1739985112305837000,4.451837158203125,0.16324761143922806,0.14167247009947895,0.8275669682011008
1739985112315861200,4.461861328125,0.16044892063140867,0.1500445771254599,1.0029890746239571
1739985112325884200,4.47188427734375,0.08277765192985534,0.17696093336269259,1.222459508544579
1739985112335907300,4.4819072265625,-0.020582769301533698,0.23413828008994458,1.4299915943250059
1739985112345931000,4.491930908203125,-0.15358020390570162,0.2301153812494129,1.584233184748888
1739985112355954200,4.5019541015625,-0.28977205063700673,0.22870025375448166,1.836221740436554
1739985112365977000,4.51197705078125,-0.37559155448079107,0.27093663645945487,2.162692413395643
1739985112376001000,4.5220009765625,-0.42989656064212317,0.30452048776187,2.4604084087744353
1739985112386024200,4.532024169921875,-0.4489765241652727,0.34160818246677516,2.677497208255529
1739985112396047000,4.542047119140625,-0.4776151741504669,0.43658224895112213,2.950937425033748
1739985112406071300,4.5520712890625,-0.4702227258116007,0.5082508431717753,3.2818533869639035
1739985112416094000,4.562093994140625,-0.39866263346672054,0.5214909946255386,3.5713445748329162
1739985112426117000,4.5721171875,-0.5183896676093339,0.576328061836958,3.72606722677201
1739985112436141000,4.58214111328125,-0.5464625004053115,0.592520925616473,3.7910318663746114
1739985112446164200,4.592164306640625,-0.5036725754708051,0.6231837749056518,3.868828515021503
1739985112456187100,4.602187255859375,-0.5242155972838402,0.633329029083997,3.884531111066043
1739985112466211000,4.612211181640625,-0.4521306042820215,0.6419560607191175,3.8272947276279328
1739985112476234200,4.622234130859375,-0.4302221393346786,0.6277156461816281,3.7572532231524582
1739985112486257200,4.632257080078125,-0.3339718423694372,0.5773885306753218,3.637669981394708
1739985112496281000,4.642281005859375,-0.21098259156048296,0.536947872280702,3.4752976914852853
1739985112506304000,4.652303955078125,-0.21384557977616786,0.5795130485486238,3.3872397610649463
1739985112516327200,4.6623271484375,-0.3113251262754202,0.5431863282788545,3.2223189557164904
1739985112526351000,4.67235107421875,-0.34965631823539733,0.4240142976704985,3.0085446876108644
1739985112536374000,4.6823740234375,-0.43982115780711173,0.2422845424707979,2.823786378370225
1739985112546397200,4.692397216796875,-0.4054097696393728,-0.043344563142582775,2.5344191091418264
1739985112556421000,4.702421142578125,-0.24747429313361644,-0.19792232671827076,2.213711529754102
1739985112566444000,4.712444091796875,0.1597375574916601,0.02561009594425559,2.0334606149353087
1739985112576467000,4.722467041015625,0.4190957651644945,0.10038279366008937,1.4574801974922418
1739985112586491100,4.7324912109375,0.501750082975626,0.1206605886656791,0.5682229717167094
1739985112596514300,4.742514404296875,0.5991074643999338,0.012613982379436492,-0.4040068440388888
1739985112606537200,4.752537109375,0.8369517594009638,-0.13784955081045627,-1.1995078912198542
1739985112616561200,4.76256103515625,0.9506710775613785,-0.11294205017760395,-1.9758388854414224
1739985112626584000,4.772583984375,1.0493255130589008,-0.0030418519139289854,-2.589574302391708
1739985112636607200,4.782607177734375,0.9962000720709562,0.008286401503905654,-2.8714775193497535
1739985112646630100,4.792630126953125,0.7561059523165226,-0.07338036657460033,-3.0934865318372844
1739985112656654000,4.802654052734375,0.5751338836163282,-0.06345270066969096,-3.389187680262327
1739985112666677200,4.81267724609375,0.4550976373940706,-0.13241152447499335,-3.7204099316626786
1739985112676700200,4.8227001953125,0.1729535974174738,-0.23503639797344802,-3.912881299498677
1739985112686724000,4.83272412109375,-0.04994797999560833,-0.193989517313987,-3.9159932940393682
1739985112696747000,4.8427470703125,-0.1242670156598091,-0.17020977860204875,-3.9175671192273493
1739985112706770200,4.852770263671875,-0.04228197541236877,-0.11555405930690467,-4.09384606167525
1739985112716794000,4.862794189453125,0.011136895564198493,-0.07930025814287364,-4.253057549466193
1739985112726817000,4.872817138671875,0.047620998352766036,-0.09699556237459182,-4.282729049630463
1739985112736840000,4.88283984375,0.12641221099495886,-0.05201452060397714,-4.14911523669362
1739985112746864000,4.892864013671875,0.045450668576359744,0.04455196617096662,-3.821619312340021
1739985112756887300,4.90288720703125,-0.010421440771222115,0.046612296234257514,-3.5196079578548667
1739985112766910000,4.912909912109375,-0.09089081575870514,-0.03851747177969664,-3.3133874661296603
1739985112776934100,4.92293408203125,-0.24336101259589193,-0.03797280697636306,-3.0082047881320118
1739985112786957000,4.93295703125,-0.3442284479677677,0.01065316716786474,-2.6307331189930436
1739985112796980200,4.942980224609375,-0.35313597704470157,0.0022974998200312254,-2.299855589377135
1739985112807004200,4.953004150390625,-0.32604864815473555,-0.053781822537444526,-1.9756670360058546
1739985112817027000,4.963027099609375,-0.19244974052608013,-0.08997779256701469,-1.6400174696825445
1739985112827050200,4.97305029296875,-0.13890870447456835,-0.09296020591128618,-1.346290836200863
1739985112837074000,4.983073974609375,-0.10824351709783077,-0.1971164536954835,-1.1522777918808162
1739985112847097000,4.99309716796875,-0.014130816683173179,-0.2235515657544136,-0.9337362363081425
1739985112857120000,5.0031201171875,0.08900164101123809,-0.16280651660822332,-0.6971495401527732
1739985112867144200,5.013144287109375,0.12915771031081677,-0.1966398491596803,-0.5832313384193927
1739985112877167000,5.0231669921875,0.1606570104241371,-0.2201484793126583,-0.5082645063709468
1739985112887190000,5.03318994140625,0.20493571261167526,-0.2133057007458061,-0.3722258043747395
1739985112897214200,5.043214111328125,0.2069470524340868,-0.1725081186722964,-0.20830460452288388
1739985112907237000,5.053237060546875,0.21561083588302135,-0.10006327938213944,-0.10796410650140605
1739985112917260300,5.06326025390625,0.22989362825751303,-0.05860431079044938,-0.07553286843337118
1739985112927284200,5.0732841796875,0.2450970426082611,-0.037617709928378464,-0.04988435844117775
1739985112937307100,5.08330712890625,0.28781507135033607,0.017511910488829014,0.0004887333650141954
1739985112947330300,5.093330322265625,0.3262777807354927,0.04987111536711454,0.08077341770166531
1739985112957354000,5.10335400390625,0.25937165167629717,0.08871332558915018,0.13053696277476845
1739985112967377200,5.113377197265625,0.14708908832073211,0.1371234284929931,0.1758106673490256
1739985112977400000,5.123400146484375,0.06986380982100963,0.09908705476112663,0.20191267499607055
1739985112987423200,5.13342333984375,-0.01830313393175602,0.08745879548341036,0.19683475067727266
1739985112997447000,5.143447021484375,-0.09442483510375023,0.10890022744089364,0.20492705438118428
1739985113007470000,5.153469970703125,-0.10559095676243305,0.1125420910745859,0.20311890898067503
1739985113017493000,5.163492919921875,-0.1347153444379568,0.07187894903570413,0.18843478752998635
1739985113027517200,5.17351708984375,-0.14556582427620887,0.07144026535749436,0.15752430188897995
1739985113037540000,5.1835400390625,-0.06391629959344863,0.1096924737971276,0.1700085386752151
1739985113047563000,5.19356298828125,-0.012646715605258941,0.15125731391608715,0.23575820944197476
1739985113057587200,5.203587158203125,-0.00044072950482368465,0.1326204910505563,0.2482136219925247
1739985113067610000,5.213610107421875,0.05078209273219108,0.1201901216097176,0.19352438402026892
1739985113077633000,5.223633056640625,0.07623334485292434,0.11027261177264153,0.16570148913105948
1739985113087657200,5.2336572265625,0.09691665191948413,0.092568174386397,0.11619140736237167
1739985113097680100,5.24368017578125,0.12905249637067318,0.08648293618857861,0.015087532886117696
1739985113107703300,5.253703369140625,0.09425473923385143,0.07915127812623977,-0.029965149348601696
1739985113117727000,5.26372705078125,0.09469546873867511,0.0610698971863836,-0.028284922910388557
1739985113127750100,5.273750244140625,0.11714929260909557,0.028098917085304854,-0.015553068038634954
1739985113137773000,5.28377294921875,0.05740998643934726,0.022288842567056415,-0.012786233673803507
1739985113147797000,5.293796875,0.043348727861046786,0.023010580970346927,-0.02304356992449611
1739985113157820200,5.303820068359375,0.09217384130656718,-0.0033667730193585156,-0.04454228502716869
1739985113167843000,5.313843017578125,0.1327028355717659,0.0004751432310789823,-0.07660760325910523
1739985113177867300,5.3238671875,0.12254092251956462,-0.06355813380554318,-0.08261517311083152
1739985113187890200,5.33389013671875,0.10722352640032767,-0.08248926344253123,-0.023023824044410137
1739985113197913000,5.3439130859375,0.11531389387547969,-0.048466436200961464,0.03404465548088774
1739985113207937300,5.353937255859375,0.11144845061898231,-0.051426893441751595,0.045170719123817975
1739985113217960200,5.363960205078125,0.0237502934217453,-0.020127792075648902,0.023937888415716587
1739985113227983400,5.3739833984375,-0.05159224007129669,-0.007338380064070224,-0.013685904193576424
1739985113238007000,5.384007080078125,-0.05875614035129547,-0.03710800684057176,-0.029347656771074978
1739985113248030200,5.3940302734375,-0.04768997193574905,-0.05520553519763052,-0.06011522681005299
1739985113258053000,5.40405322265625,-0.027178514304757116,-0.077055986347422,-0.10131510607413947
1739985113268076300,5.414076171875,-0.00916939488351345,-0.08861439525932073,-0.03913686405336484
1739985113278100000,5.424099853515625,-0.04588438381850719,-0.07507964477315544,-0.007958612587954848
1739985113288123100,5.434123046875,-0.07001520099043845,-0.08528028240054845,-0.016570300523471086
1739985113298146000,5.44414599609375,-0.0755862791210413,-0.08697356924973428,0.005383939794357866
1739985113308170000,5.454169921875,-0.11888999879658221,-0.08663513107560575,-0.03185445196023211
1739985113318193200,5.464193115234375,-0.15164543645083903,-0.07808876346126198,-0.05389047054369002
1739985113328216000,5.474216064453125,-0.19287059628665446,-0.058093657854571934,-0.015028678838349878
1739985113338240300,5.484240234375,-0.22099662057459354,-0.04365560185313225,0.04180668605081737
1739985113348263000,5.494262939453125,-0.16704349659085274,-0.07364778533913195,0.04958656280469149
1739985113358286000,5.5042861328125,-0.04984627318680286,-0.027857144218683242,0.09231821821331977
1739985113368310300,5.514310302734375,0.00888531724512577,-0.02539901047684252,0.11070135857872665
1739985113378333200,5.524333251953125,0.016164952859282492,-0.05135645855404436,0.07704849716071038
1739985113388356000,5.534356201171875,0.10392331581115723,-0.05525500036254525,-0.006239771172404289
1739985113398380000,5.544380126953125,0.12171908474266528,-0.006623290597274899,0.007904964438267052
1739985113408403200,5.5544033203125,0.09479425293803215,-0.00405073669552803,0.04816069472003728
1739985113418426000,5.564426025390625,0.06409340972602368,0.013434797243028878,0.060523990274034434
1739985113428450000,5.574449951171875,0.07821195144951343,-0.002689385214447975,0.062132667579688126
1739985113438473200,5.58447314453125,0.06908990283906459,0.016082316077128053,0.102842973228544
1739985113448496000,5.59449609375,0.03959726637303829,0.04816190029643476,0.13534779712259767
1739985113458520000,5.60452001953125,0.050213937455415726,0.036301366632804276,0.1299930651564151
1739985113468543000,5.61454296875,0.0005810147583484649,0.012324205652624367,0.11413005438577382
1739985113478566100,5.624566162109375,0.00790975021123886,-0.01680544271990657,0.09179001135444267
1739985113488590300,5.63459033203125,0.07518880423605441,0.018555355127155778,0.11088102599456906
1739985113498613000,5.644613037109375,0.0841951175123453,0.01589410002864897,0.09269046732550486
1739985113508636200,5.65463623046875,0.04176584258377552,-0.006351999375224113,0.051385775980073954
1739985113518660000,5.66466015625,-0.01146422782242298,-0.03293181713446974,0.027901586148608475
1739985113528683300,5.674683349609375,-0.0718301414579153,-0.020015783068537712,0.06351663275137544
1739985113538706200,5.6847060546875,-0.10675532436668872,-0.010832651920616627,0.09242242750646545
1739985113548729000,5.69472900390625,-0.08883855940401554,-0.023982421677187084,0.06144130604835227
1739985113558753000,5.7047529296875,-0.07250409519672393,-0.049097427580878136,0.03865008518341929
1739985113568776200,5.714776123046875,-0.030886136651039123,-0.017928309269994495,0.06899853476118296
1739985113578799000,5.724799072265625,0.04763853400945663,-0.04528787923008203,0.052910391731467096
1739985113588823000,5.734822998046875,0.07167699672281741,-0.03552241814956069,0.04925269120782613
1739985113598846200,5.74484619140625,0.012647300127148627,-0.036943463928624985,0.0827283876943402
1739985113608869000,5.754869140625,-0.0657651423305273,-0.035673882384225725,0.06952893357714637
1739985113618893000,5.76489306640625,-0.14586626852750778,-0.02360219018794596,0.05287997832689434
1739985113628916000,5.774916015625,-0.25497780063152314,-0.01925400491580367,0.06989919166164472
1739985113638939100,5.784939208984375,-0.23478198482096194,-0.06901420725435019,0.0742070997223258
1739985113648963300,5.79496337890625,-0.21422610352635382,-0.0358371101219207,0.05627714648451656
1739985113658986000,5.804986083984375,-0.19118775776624677,-0.010868819212540983,0.05924567743390798
1739985113669009200,5.815009033203125,-0.10948854872286319,-0.03157163469716907,0.023226726205367594
1739985113679033000,5.825033203125,-0.02371931376159191,-0.009649068159237504,0.016935864166542886
1739985113689056300,5.83505615234375,-0.04071721031367779,0.005306581975519657,-0.015844854059442876
1739985113699079000,5.845078857421875,-0.0640004707455635,-0.009690350017696619,0.015195194511674344
1739985113709103000,5.85510302734375,-0.07895137163996696,0.0157268537029624,0.027111988407187163
1739985113719126300,5.865126220703125,-0.09290741627812385,0.038619361251592633,0.03848976178886369
1739985113729149200,5.875149169921875,-0.0776946495771408,0.02413132862858474,0.04032408281024545
1739985113739173000,5.885173095703125,-0.024481530305743217,0.02033537041172385,0.017662534473277626
1739985113749196000,5.895196044921875,-0.038593057766556735,0.040410701647773384,0.02187275431314483
1739985113759219200,5.90521923828125,-0.04235679421424866,0.07199366145655513,0.12217283812584355
1739985113769243100,5.9152431640625,-0.045699674901366234,0.09076609340049326,0.14488043582793325
1739985113779266000,5.92526611328125,-0.005730068084597587,0.060510217477008695,0.08792730804430321
1739985113789289200,5.935289306640625,0.07320844407379627,0.05201433794088661,0.13564124537752942
1739985113799312100,5.94531201171875,0.18586451691687106,0.03061857175603509,0.11225788557203487
1739985113809336000,5.955336181640625,0.30275486632883547,0.06289411693885923,0.060612545340321955
1739985113819359000,5.96535888671875,0.4991740950077772,0.019127382861450312,0.019399313404317945
1739985113829382100,5.975382080078125,0.5990431669920683,0.08018938900232314,0.1393221075810492
1739985113839406000,5.985406005859375,0.7975158210694789,0.11418306321464479,0.15241344341496005
1739985113849429200,5.99542919921875,1.0275526571899651,0.15791501823961734,0.20775299852211027
1739985113859452000,6.005451904296875,1.1781114674478768,0.2172401906505227,0.24549186887843533
1739985113869476000,6.01547607421875,1.3138941488564013,0.26081213280819354,0.19485714872768148
1739985113879499300,6.025499267578125,1.680323907238245,0.21992343838512896,0.16192224458698182
1739985113889522200,6.035522216796875,1.8742986653745173,0.057505336572602386,0.051147400646936146
1739985113899546000,6.045546142578125,2.301327561625838,0.13031097199916838,0.0167330898697488
1739985113909569000,6.055569091796875,2.6316835515856742,0.22050584138296545,0.15851660086195915
1739985113919592200,6.06559228515625,2.9016256971150636,0.3464096644643694,0.22628550249664112
1739985113929616100,6.0756162109375,3.219904295790195,0.34526283251680434,0.3001211750906892
1739985113939639000,6.08563916015625,3.403477486899495,0.3139284406416118,0.3588508475601673
1739985113949662200,6.095662109375,3.6050334939450024,0.29757614851668474,0.40980062500946224
1739985113959686100,6.10568603515625,3.6305034507662057,0.37140703533776104,0.4259169164214283
1739985113969709000,6.115708984375,3.600466039898991,0.4687149515971541,0.36576406101472675
1739985113979732000,6.12573193359375,3.490594044816494,0.7049514460753649,0.3233207575608045
1739985113989756200,6.135756103515625,3.1720868980824943,0.9279744579110294,0.3386521091401577
1739985113999779300,6.145779296875,2.5457997503340244,0.9488059412766248,0.2232388648097403
1739985114009802000,6.155802001953125,1.653874291729927,0.8819088723067193,0.09327559200339018
1739985114019825200,6.1658251953125,0.5447369917869568,0.6965074428569525,-0.004623202821239829
1739985114029849000,6.17584912109375,-0.6772130328655243,0.5035621738988906,-0.14237952239029109
1739985114039872300,6.185872314453125,-1.9441490311920642,0.2428274537084624,-0.43679377280995246
1739985114049895200,6.195895263671875,-2.9484114136874675,0.1498953048478812,-0.5550082834977657
1739985114059919000,6.205919189453125,-3.5147599333018062,0.041487135240249336,-0.5659242297876625
1739985114069942300,6.2159423828125,-3.8799814849376677,-0.15033689286923035,-0.42090076875984667
1739985114079965200,6.225965087890625,-4.153615470722317,-0.3445698452839628,-0.22384932485828174
1739985114089989000,6.235989013671875,-4.188854541885853,-0.40214262106958776,-0.16965123140383512
1739985114100012000,6.246011962890625,-4.0161885292381045,-0.4745767197700217,-0.09890733254635706
1739985114110035200,6.25603515625,-3.756386084929108,-0.7224863721136003,-0.10616873838407918
1739985114120059100,6.26605908203125,-3.307975962474942,-0.6415146005619317,-0.022930227476824074
1739985114130082000,6.27608203125,-2.865682861596346,-0.5894450618350878,0.11518782894355244
1739985114140105000,6.28610498046875,-2.4223253463566303,-0.6236292536508291,0.18939502913057804
1739985114150129200,6.296129150390625,-2.057375597399473,-0.5941287626719102,0.23747522422662004
1739985114160152300,6.30615234375,-1.7269909658670424,-0.6003576836567371,0.19307527027959004
1739985114170175000,6.316175048828125,-1.4431231708377599,-0.5978817950624972,0.19995081860488279
1739985114180199200,6.32619921875,-1.074209778946638,-0.530809077264741,0.22690483997138217
1739985114190222000,6.33622216796875,-0.7135808157980441,-0.4028752827256918,0.22273776515349744
1739985114200245200,6.346245361328125,-0.3541466153919697,-0.3208131221214309,0.17377886926047503
1739985114210269200,6.356269287109375,-0.00767535693347454,-0.2963574751756154,0.07391861077030189
1739985114220292000,6.3662919921875,0.17606266934871673,-0.28486919062417,-0.029705087340041063
1739985114230315300,6.376315185546875,0.28953999544680115,-0.2683629317802377,-0.05313047335608862
1739985114240338200,6.386338134765625,0.39366730939745903,-0.23874451351007445,-0.00926943945819512
1739985114250362000,6.396362060546875,0.3961018430680036,-0.19922438576016574,-0.024807200329843907
1739985114260385000,6.406385009765625,0.3680529756695032,-0.1630833607882261,-0.11512432612013071
1739985114270408200,6.416408203125,0.30335283222198484,-0.1702077510417439,-0.2100114084407687
1739985114280431900,6.426431884765625,0.2972954318791628,-0.14254793775975702,-0.23616826981389893
1739985114290455000,6.436455078125,0.3486661381542682,-0.06750747421951964,-0.156692892566137
1739985114300478000,6.44647802734375,0.37771804511547086,-0.017123623557295648,-0.08150472765089943
1739985114310502100,6.456502197265625,0.32072599182724953,-0.03355804100772366,-0.1312826574423816
1739985114320525000,6.466525146484375,0.2906786440879106,-0.03314025398707017,-0.1662250928800553
1739985114330548000,6.4765478515625,0.2934212207943201,0.010802201983425765,-0.09995606528115458
1739985114340572200,6.486572265625,0.2162783598810434,0.059793374444544314,0.02183281502840109
1739985114350595000,6.496594970703125,0.11386544863283633,0.08263035241365432,0.05551680223704315
1739985114360618200,6.5066181640625,0.052311786517500874,0.12409799750214442,0.08994048363077453
1739985114370642000,6.516641845703125,-0.005501520025730133,0.13940506402361205,0.14696684104739688
1739985114380665000,6.5266650390625,-0.07993336841464042,0.12117926051123067,0.1595818372069858
1739985114390688000,6.53668798828125,-0.2139402723222971,0.0799844775473699,0.0959974638484884
1739985114400712000,6.5467119140625,-0.29589842456281185,0.053101731318794185,0.011159653101989533
1739985114410735000,6.556735107421875,-0.2843652231574058,0.035485346675338224,-0.014607537666696589
1739985114420758000,6.566758056640625,-0.2333592585414648,0.040390535642579196,-0.002663052046659868
1739985114430782000,6.576781982421875,-0.1255138008505106,0.05292382660177536,0.0477108503269963
1739985114440804900,6.586804931640625,0.0174848032861948,0.06536469003716483,0.12308871086174622
1739985114450828000,6.596828125,0.10930676241517066,0.08795411385283805,0.22110409953705965
1739985114460851000,6.606850830078125,0.16268647042512893,0.10066771154869347,0.26343002368900925
1739985114470875100,6.616875244140625,0.21609482000768182,0.10118191728168166,0.28886337482687086
1739985114480898000,6.62689794921875,0.2860036380141973,0.03764237857875414,0.20835308330710975
1739985114490921000,6.6369208984375,0.27738544727265835,0.022369287392124532,0.12155298919444903
1739985114500945200,6.646945068359375,0.23557108937203883,0.019575628952449187,0.1340563782057259
1739985114510968000,6.656968017578125,0.17071721666753292,-0.0017614932471886277,0.1571372935990803
1739985114520991000,6.666990966796875,0.10615443586409092,-0.01935780321699567,0.12701242364412174
1739985114531015200,6.67701513671875,0.01643967814743519,-0.06643902300409972,0.08696578780207782
1739985114541038000,6.6870380859375,0.0009346505016088485,-0.054104871346196154,0.0521057242850773
1739985114551061200,6.697061279296875,0.006217559340596199,-0.028162465574499217,0.027935771546000614
1739985114561085000,6.7070849609375,-0.08127952232658862,-0.057312362150615075,0.00567383068560157
1739985114571108000,6.717108154296875,-0.09859422974288463,-0.06238501663925126,-0.02187381375906989
1739985114581131000,6.727131103515625,-0.06832651725113391,-0.03785507148136385,-0.02211217539247591
1739985114591155000,6.737155029296875,-0.043453941801190374,-0.020727073143050074,0.01905230376466643
1739985114601177900,6.747177734375,-0.018442250141501425,-0.010093450925871729,0.07093868621063884
1739985114611201000,6.757200927734375,-0.03488835802972316,-0.04391636254801415,0.02043407697926741
1739985114621224000,6.767223876953125,-0.0634597879976034,-0.0914050123585388,-0.0447442875724053
1739985114631248000,6.777247802734375,-0.1171697508752346,-0.09420923785800114,-0.07306820905262139
1739985114641271000,6.78727099609375,-0.08573591721355915,-0.0787983730353415,-0.07959040019586681
1739985114651294000,6.7972939453125,-0.07630407200157642,-0.04478913136112969,-0.03820039148742799
1739985114661318100,6.807318115234375,-0.12374328404664993,-0.025594085524370893,-0.0035712369497399774
1739985114671341000,6.817341064453125,-0.1652063442915678,-0.05486278617456555,-0.002195509883435443
1739985114681364000,6.827364013671875,-0.19590426489412782,-0.020711704327270854,-0.00845999080541078
1739985114691388200,6.83738818359375,-0.17947686170637606,-0.007742133992793969,0.022207370262104086
1739985114701411000,6.8474111328125,-0.13852058193981648,-0.01948448463685345,0.0031827582219615576
1739985114711434200,6.857434326171875,-0.13901917911171913,-0.07367386506188195,-0.03089868560535833
1739985114721458000,6.8674580078125,0.13000409800708293,0.007743449167045764,0.040527039770130065
1739985114731481000,6.877481201171875,0.46489013261198997,0.0314999759667553,0.05259135237755254
1739985114741504000,6.88750390625,0.418953141823411,0.032753990049264395,-0.005987020254041999
1739985114751528000,6.89752783203125,0.1955488755851984,0.03894941062328871,-0.024955175699479876
1739985114761551000,6.907551025390625,0.06985036581754685,-0.0003253731965785846,0.04347537731486372
1739985114771574000,6.917573974609375,-0.03177519444525242,0.04437550905894022,0.08467594156553969
1739985114781597200,6.92759716796875,-0.0014414309799671173,0.04434338775447104,0.025288070048810913
1739985114791620900,6.937620849609375,0.06239245102703571,0.05020245251359883,0.02836204326720908
1739985114801644000,6.94764404296875,0.0677086776137352,0.048597857728018425,0.04950607231385074
1739985114811667000,6.9576669921875,0.03577098608314991,0.04802649214742705,0.026149691846827045
1739985114821691100,6.967691162109375,-0.06260404795110225,0.026554331691539843,0.018095153736881912
1739985114831714000,6.977714111328125,-0.18746493785083293,0.02233299680261407,0.10595503170131705
1739985114841737000,6.987737060546875,-0.4372597828865051,0.0007309925721143372,0.1277444368462544
1739985114851761200,6.99776123046875,-0.6873457198232412,-0.04755000177605543,0.09488707318748348
1739985114861784000,7.0077841796875,-0.9977601609945297,-0.05205538690390531,0.08333349571432917
1739985114871807000,7.017806884765625,-1.0684206741511821,-0.0024097186042854445,0.07013114638715051
1739985114881831000,7.027830810546875,-1.36522160051167,0.08764889296172186,-0.04670757330227643
1739985114891854000,7.03785400390625,-2.1265777284413576,0.038711843574326485,-0.1026611321219243
1739985114901877000,7.047876953125,-3.0159546716064214,-0.16389226601831614,-0.15475615234989673
1739985114911901000,7.05790087890625,-3.5288398965805765,-0.09732576244333759,0.02711852774582803
1739985114921924000,7.067924072265625,-3.8500148012191056,0.04045090579399839,0.1928182085122913
1739985114931947000,7.077947021484375,-4.241361558714509,-0.03346102864034474,0.15610099108759312
1739985114941970200,7.08797021484375,-4.62530826908648,0.0031293292679823934,0.17990754474122075
1739985114951993900,7.097993896484375,-5.012357621648907,-0.049530631366372105,0.16222904551383108
1739985114962017000,7.10801708984375,-5.1233501451939345,-0.14965112082846463,0.07906477801972069
1739985114972040000,7.1180400390625,-4.7912090253829955,0.06965953768687322,0.18610649071289226
1739985114982064000,7.128064208984375,-4.367099231448769,-0.034226597052207215,0.05522414856655523
1739985114992087000,7.138087158203125,-3.7973715907901524,-0.3734835128182545,-0.16496566740348934
1739985115002110000,7.14810986328125,-2.98447582975924,-0.07502001897383015,-0.05224152515972964
1739985115012134100,7.158134033203125,-1.976318777912855,0.2582162710960954,0.20184731814227996
1739985115022157000,7.168156982421875,-1.04852530259192,0.08053087765006348,0.17012778114071114
1739985115032180000,7.178179931640625,-0.19650281530916688,0.11421608870141207,0.045138789615593845
1739985115042204200,7.1882041015625,0.6673410426706076,0.26894202857613564,0.23732576928595078
1739985115052227000,7.19822705078125,1.538451092261076,0.36044852854777126,0.37962512084580957
1739985115062250200,7.208250244140625,2.242530504742265,0.4208687661863863,0.26972400926668194
1739985115072274000,7.21827392578125,2.823654568684101,0.3782210992667824,0.07530855815820396
1739985115082297000,7.228297119140625,3.4273914464503523,0.30208237389475107,-0.028929212163295595
1739985115092320000,7.238320068359375,3.9902328347265716,0.33458602874502535,-0.06832341197859496
1739985115102343200,7.24834326171875,4.344652421841025,0.3463705745629966,-0.08803385542500763
1739985115112367000,7.2583671875,4.428376414710283,0.4400601541947573,0.04729125494174659
1739985115122390000,7.26839013671875,4.371302528357505,0.389001071152091,0.07844024378005415
1739985115132413200,7.2784130859375,4.250502312025428,0.39217546340450643,0.10809566959235817
1739985115142436900,7.288436767578125,4.07865638358891,0.27916115170829,-0.08579762080553918
1739985115152460000,7.2984599609375,3.9532711775541305,0.19271672089919448,-0.26980032590590414
1739985115162483000,7.30848291015625,3.919334421160817,0.18060389297492802,-0.30559498512558636
1739985115172507100,7.318507080078125,3.958141413938999,0.09537563302256166,-0.42600382751990107
1739985115182530000,7.328530029296875,3.8769793805122372,-0.021629282679781318,-0.5412944866502657
1739985115192553000,7.338552978515625,3.614519699692726,-0.058168988113105294,-0.4939445603238418
1739985115202577200,7.3485771484375,3.3259587784111497,0.0010055968459695577,-0.3294313128629699
1739985115212600000,7.35860009765625,2.9315491262137887,-0.18177205997146664,-0.2899162083480507
1739985115222623200,7.368623291015625,2.6572294962525365,-0.06557327302023767,-0.195340456998907
1739985115232646000,7.37864599609375,2.3076252004653215,0.016907076463475824,-0.2592428011322394
1739985115242670000,7.388670166015625,1.9095716388076542,0.014939429652318358,-0.2949577096465975
1739985115252693000,7.39869287109375,1.4443003979235887,0.09054207538627088,-0.21213497646600007
1739985115262716200,7.408716064453125,0.9506447740763425,0.16426928263716398,-0.13313052293192595
1739985115272740000,7.418739990234375,0.42746261149346826,0.2794759167458862,-0.04985688591236248
1739985115282763500,7.428763427734375,-0.09675298579037189,0.4338309774816036,-0.0026612916311249137
1739985115292786400,7.438786376953125,-0.6668120503604412,0.4802135200805962,0.06317035833066328
1739985115302810400,7.448810302734375,-1.1747831998080014,0.46314365427084264,0.14441287311511114
1739985115312833300,7.458833251953125,-1.534101664879918,0.4680930933717638,0.10467007905784993
1739985115322856400,7.4688564453125,-1.7558721924364566,0.378608089290373,0.03852888822285458
1739985115332880400,7.47888037109375,-1.7617735254347324,0.2752337125988677,0.018506912875548003
1739985115342903300,7.4889033203125,-1.6899889766842127,0.18852895035315304,0.0340015287252143
1739985115352926200,7.49892626953125,-1.4816115991860628,0.09725136376656592,-0.01171164497854188
1739985115362950400,7.508950439453125,-1.2089245388627052,0.030173275673948226,0.009563718830188736
1739985115372973600,7.5189736328125,-0.9382306981831788,-0.020345526479557157,0.10372274260460398
1739985115382996200,7.528996337890625,-0.6950023720562457,-0.07300334995575249,0.1784380201779306
1739985115393019400,7.539019287109375,-0.49725394060015676,-0.1124252597618848,0.2257895539395511
1739985115403043300,7.549043212890625,-0.3332826910614967,-0.11882427661661057,0.2243733852650039
1739985115413066500,7.55906640625,-0.23806933592855928,-0.154177475679107,0.198055488111265
1739985115423089200,7.569089111328125,-0.15654957510530948,-0.1890641532083973,0.18152469761427492
1739985115433113300,7.57911328125,-0.05204992071092129,-0.19324943953640758,0.18345084337126463
1739985115443136500,7.589136474609375,-0.020179449197649954,-0.1722853792997077,0.14534646417079491
1739985115453159400,7.599159423828125,-0.05064706817567348,-0.16583097899593413,0.11228002433860673
1739985115463183400,7.609183349609375,-0.11728022551238536,-0.12512542258743195,0.09966584102977066
1739985115473206300,7.619206298828125,-0.16279752958416938,-0.12531374823376534,0.05759509721528738
1739985115483229400,7.6292294921875,-0.24576982730329036,-0.13321031016986817,0.09299580694762989
1739985115493252400,7.63925244140625,-0.2772463310629129,-0.11470149759817867,0.05713537074904888
1739985115503276300,7.6492763671875,-0.21418460247218607,-0.08784545671343803,-0.03128897269773297
1739985115513299500,7.659299560546875,-0.09665127898156642,-0.06168569099716842,-0.04325759267860558
1739985115523322400,7.669322265625,0.049400282984972,-0.04790690262205898,0.0020274233075324444
1739985115533346300,7.67934619140625,0.1677899310439825,-0.0006960194401443004,0.020671826691320165
1739985115543369200,7.689369140625,0.2563461663752794,0.017718904303014277,0.03491994961122982
1739985115553392400,7.699392333984375,0.24238369199633597,0.04052044563256204,0.009634267882327548
1739985115563416600,7.70941650390625,0.134271107801795,0.04039090096876025,-0.04902698812659364
1739985115573439200,7.719439208984375,0.11079729323387146,0.015347206735610961,-0.04062483302222099
1739985115583462400,7.72946240234375,0.0608808774203062,0.03638751054629683,0.03681041670006234
1739985115593486300,7.739486328125,0.026212299621105193,0.052520387766882774,0.00833563377337996
1739985115603509500,7.749509521484375,0.02139876185953617,0.05063808115161955,0.009571249116095713
1739985115613532400,7.759532470703125,0.02789455361962318,0.04066109621226787,0.06770287806061095
1739985115623555300,7.769555419921875,0.05049976865947246,0.0524848049968481,0.10055626879716291
1739985115633579300,7.779579345703125,0.0681400547683239,0.03693316173031926,0.14359933737567626
1739985115643602400,7.7896025390625,0.09732231011092662,0.05835340476930141,0.10995865045264362
1739985115653625600,7.79962548828125,0.124293319144845,0.0038561639714986082,0.0544700696630869
1739985115663649300,7.809649169921875,0.15266893427968023,-0.017475889327377078,0.06783269671904854
1739985115673672400,7.81967236328125,0.15461130051910876,-0.015209697961062193,0.05284385670074261
1739985115683695400,7.8296953125,0.14191373150944708,-0.026657486105337736,0.05966251917306799
1739985115693719300,7.83971923828125,0.1404360601723194,-0.01941379858739674,0.14545556883476674
1739985115703742200,7.8497421875,0.12530571105778215,0.010567205917462706,0.15576671763192862
1739985115713765400,7.859765380859375,0.11687047566771507,-0.007343933022022247,0.08826074124975129
1739985115723789600,7.86978955078125,0.11903145309388637,-0.04113149020299315,0.04324137676274404
1739985115733812200,7.879812255859375,0.10129588991701602,-0.04515146643407643,0.023803407281893302
1739985115743835400,7.88983544921875,0.13613807071745396,-0.028455694633722304,0.050289185515558346
1739985115753858300,7.8998583984375,0.1400871006041765,-0.03603007541075349,0.05610754380496218
1739985115763882500,7.909882568359375,0.11567688196897506,-0.04843984045498073,0.04690243828725069
1739985115773905200,7.9199052734375,0.09311901320219039,-0.049122269761189816,0.027258328942162915
1739985115783928300,7.92992822265625,0.043808162066340445,-0.04383512313850224,0.027337243963847867
1739985115793952500,7.939952392578125,-0.030032734692096708,-0.04319631377831101,0.09856412686556577
1739985115803975400,7.949975341796875,-0.12589198651313782,-0.01759564324952662,0.13734940100228413
1739985115813998300,7.959998291015625,-0.17793313939571379,-0.04282791885733604,0.12958236546367405
1739985115824022300,7.970022216796875,-0.18452654631137846,-0.07138480884321033,0.11887399750985204
1739985115834045400,7.98004541015625,-0.1845738925844431,-0.05514350281208753,0.0636140606772853
1739985115844068400,7.990068359375,-0.15938216818273065,-0.07915836545415222,0.047608148004347456
1739985115854092300,8.00009228515625,-0.12572890490591526,-0.08670724646374582,0.07304596982134971
1739985115864115500,8.010115478515624,-0.08702186537086963,-0.07196129355691373,0.05437747774249874
1739985115874138400,8.020138427734375,-0.09935995341837406,-0.09367737773731351,0.08246962716029957
1739985115884161500,8.03016162109375,-0.07683598692119122,-0.08841083551123738,0.09765022689104079
1739985115894185200,8.040185302734375,-0.059408466780185694,-0.03681925302706659,0.12274478366174735
1739985115904208400,8.05020849609375,0.02253507241308689,-0.012147022454813122,0.12658988738311455
1739985115914231300,8.060231201171876,0.04541910439431667,0.0031273382402956483,0.12543803220055996
1739985115924255500,8.07025537109375,-0.008869535154104232,-0.013031404073908924,0.12554140124348923
1739985115934278400,8.0802783203125,-0.034118542701005936,-0.05074066474325955,0.09604615269526838
1739985115944301300,8.09030126953125,-0.03650689914226532,-0.07202668694332241,0.04778028056770563
1739985115954325500,8.100325439453124,-0.05035363818705082,-0.054841231929883355,0.02047128088423051
1739985115964348400,8.110348388671875,0.015022212564945221,-0.03244695622697472,0.05069911802331917
1739985115974371300,8.120371337890624,0.06134674136638641,-0.024724691411852837,0.09232300398629158
1739985115984394200,8.130394287109375,0.08415712358951569,-0.0145312872428447,0.13099653397738
1739985115994418400,8.14041845703125,0.11938216622769832,-0.03978774744383991,0.15618934522448108
1739985116004441300,8.15044140625,0.20686697293519973,0.01490333542563021,0.19239117873925715
1739985116014464300,8.16046435546875,0.2507049456179142,0.030128304021060464,0.17593630302269012
1739985116024488400,8.170488525390626,0.2667214299172163,-0.02604366505593061,0.1887423921744339
1739985116034511400,8.180511474609375,0.278413621276617,-0.05188508553802967,0.18436583932433276
1739985116044534500,8.190534423828124,0.21172318079471586,-0.036822321766987444,0.22989826790001242
1739985116054558200,8.20055810546875,0.13397300163805484,-0.04194134528115392,0.33487354044951495
1739985116064581400,8.210581298828124,0.09348609294891357,-0.028194851740449667,0.42088491360358893
1739985116074604300,8.220604248046875,0.038486090260744094,-0.012584390958771108,0.46569403287339955
1739985116084627500,8.23062744140625,-0.014143676164746283,-0.019579437477886676,0.5374454100066796
1739985116094651400,8.2406513671875,0.016227496701478956,-0.04805675942152738,0.7051901502020657
1739985116104674300,8.25067431640625,-0.046263738524913785,0.03468560199923813,0.9172697432190179
1739985116114697500,8.260697509765626,-0.11645371156036853,0.10814064124524593,1.21382743540816
1739985116124721400,8.270721435546875,-0.1745733075737953,0.15935907956808804,1.5040135467387734
1739985116134744300,8.280744384765624,-0.26291736145913597,0.2211759226642549,1.76594131263867
1739985116144767200,8.290767333984375,-0.3159738288640976,0.14708185486234723,2.0268767065003512
1739985116154791400,8.30079150390625,-0.42424364944696424,0.22169483197182416,2.415390432526916
1739985116164814600,8.310814697265625,-0.4197738105565309,0.20741547366343438,2.6963553457215426
1739985116174837200,8.320837158203124,-0.5253355412244797,0.15392594860345124,2.9954724400699138
1739985116184860400,8.3308603515625,-0.7406804196476936,0.15036029201112686,3.5097701621904966
1739985116194884400,8.34088427734375,-0.8396908289760351,0.11797704867012798,3.9072576143980022
1739985116204907500,8.350907470703126,-1.0607470707833766,0.1061914799388498,4.183968231149017
1739985116214930200,8.36093017578125,-1.3104852171957493,0.09405863213986158,4.496393427620828
1739985116224954400,8.370954345703124,-1.419403857076168,0.03842296189665794,4.71454781050682
1739985116234977500,8.3809775390625,-1.6076497161716221,0.08415895022042096,4.904000122782588
1739985116245000400,8.39100048828125,-1.8409873474031686,0.10562851229384541,4.991047122594714
1739985116255024400,8.4010244140625,-2.0929221270769833,-0.055845732797309755,5.211412459528446
1739985116265047300,8.41104736328125,-2.2989976573735476,-0.026952961920574305,5.4664937205344435
1739985116275070500,8.421070556640625,-2.2062807952314616,-0.05217749261334538,5.464124068793654
1739985116285093000,8.431093017578124,-1.8328367741733789,0.13720211975239216,5.450123015969991
1739985116295117000,8.441116943359376,-1.3014724741786718,0.2553138276528567,5.217319637745619
1739985116305140200,8.45114013671875,-0.7479045256823301,0.1429235661391169,4.661493388928473
1739985116315163100,8.4611630859375,-0.19181787236332892,0.3776028212379664,4.061633060334622
1739985116325187300,8.471187255859375,0.40252398506999015,0.40995998028963804,3.277511266106367
1739985116335210000,8.4812099609375,0.8804325892090797,0.23707389515042304,2.327267620176822
1739985116345233200,8.491233154296875,1.05288934302032,0.4048930522888899,1.6129590746261178
1739985116355257300,8.50125732421875,1.0088403579354286,0.6927613151311874,1.1288608220666647
1739985116365280300,8.5112802734375,0.910893193924427,0.8263685521967709,0.6014454058282077
1739985116375303200,8.52130322265625,0.7926911773920059,0.8819542458184063,-0.15955175259597598
1739985116385326000,8.531326171875,0.8480541681736707,0.6948045113965868,-1.37983859327659
1739985116395350300,8.541350341796875,0.6607862141996622,0.5261051373574882,-2.567641579785943
1739985116405373200,8.551373291015626,0.6269464884400368,0.41323900196030733,-3.46682212408483
1739985116415396000,8.56139599609375,0.5272504349350929,0.2285506892159581,-4.081961562614143
1739985116425420000,8.571419921875,0.37372400704324243,0.5315509086079895,-4.2747123319134115
1739985116435443200,8.581443115234375,0.29505145234465596,0.8011672562491148,-4.43357602917999
1739985116445466400,8.59146630859375,0.45416357141435143,0.924805253290385,-4.378582748493552
1739985116455490000,8.601489990234375,0.7338169636189937,0.9870978241395205,-4.27770771433711
1739985116465513200,8.61151318359375,0.9556728313714266,1.1384976883314548,-4.478061944377422
1739985116475536100,8.6215361328125,1.1830103454053402,1.2336854706317186,-4.775178512558341
1739985116485559300,8.631559326171875,1.351489427757263,1.1015548819899559,-4.487955854143202
1739985116495583000,8.6415830078125,1.6714327447742223,1.1050202200129629,-4.5099172183215614
1739985116505606100,8.651606201171875,1.7970500059992074,1.0285910603269934,-4.722646945810317
1739985116515629000,8.661629150390626,1.6244395229309796,0.845735369837284,-4.695470477332175
1739985116525653200,8.6716533203125,1.3874556441515684,0.6479289245836436,-4.24229094851911
1739985116535676200,8.68167626953125,1.3597060519605875,0.4832593175172806,-4.053971147404611
1739985116545699000,8.691698974609375,1.0527724386423825,0.31916181125044824,-3.864861072695255
1739985116555723300,8.70172314453125,0.841056272110343,0.138915864867717,-3.255608646377921
1739985116565746200,8.71174609375,0.643820466351509,0.034779783088713885,-2.92295811574012
1739985116575769000,8.72176904296875,0.5726064109653234,-0.05104980375766754,-2.8458386357024312
1739985116585792000,8.7317919921875,0.505351322337985,-0.08386617781892418,-2.693827873070538
1739985116595816200,8.741816162109375,0.2746802799671888,-0.18314269073754547,-2.4556518618971106
1739985116605839400,8.75183935546875,0.05780395419299602,-0.24919512557685375,-2.0520374512419104
1739985116615862000,8.761862060546875,-0.10658698206245898,-0.29935820962786674,-1.6721189734727144
1739985116625886200,8.77188623046875,-0.11993687750101088,-0.3511372044429183,-1.378866387243569
1739985116635909000,8.7819091796875,-0.1534504400461912,-0.35834406708180905,-1.139638309733942
1739985116645932300,8.791932373046874,-0.07103519168794155,-0.35624884836822746,-0.9668170334592461
1739985116655955200,8.801955078125,-0.06692132662832737,-0.34449900853745635,-0.751261069568619
1739985116665979100,8.811979248046875,-0.13290683371126652,-0.2460198565416038,-0.6125520523846149
1739985116676002300,8.822002197265626,-0.1593804146170616,-0.1634768170852214,-0.4995489196695387
1739985116686025200,8.832025146484375,-0.21677344992160796,-0.12126644560433923,-0.41610199017599225
1739985116696049200,8.842049072265626,-0.33530396775603294,-0.053380730923265216,-0.33297157928571103
1739985116706072000,8.852072021484375,-0.4365384828746319,0.010538637410104273,-0.22229418610446153
1739985116716095200,8.86209521484375,-0.4085042285233736,0.10438976427912712,-0.14226455424111337
1739985116726119200,8.872119140625,-0.28717794249057765,0.1539005949664861,-0.1095262229852844
1739985116736142000,8.88214208984375,-0.18813129280507562,0.2165550579305738,-0.060553910488262766
1739985116746165200,8.892165283203125,-0.10849310794472694,0.25404300399944185,-0.012835808436572551
1739985116756188200,8.902188232421874,-0.100708445417881,0.2987698883458972,0.05532956343609839
1739985116766212400,8.91221240234375,-0.18503215774595735,0.3033705870743841,0.1171358577387873
1739985116776235000,8.922235107421875,-0.298408361557126,0.23292167084179818,0.12561662190416828
1739985116786258200,8.932258056640626,-0.3461491868972778,0.20952537848949432,0.1275401007800363
1739985116796282000,8.9422822265625,-0.3222381499558687,0.2340776359438896,0.16184938028017057
1739985116806305300,8.95230517578125,-0.25899872671067714,0.21278277285024522,0.23161148329237474
1739985116816328000,8.962327880859375,-0.15710837803184985,0.1968343122858554,0.26131162502923977
1739985116826351000,8.97235107421875,-0.060253685432672496,0.1978529878091067,0.264873080370482
1739985116836375300,8.982375244140625,-0.052205403533577915,0.18198731015734373,0.3072695672743022
1739985116846398200,8.992398193359374,-0.05192834015786647,0.172143742339313,0.3148919519115239
1739985116856421000,9.002421142578125,-0.04853577511012554,0.13844240213707087,0.3197681431131437
1739985116866445000,9.012445068359375,-0.07192366496026516,0.08959186198934913,0.3321299408297986
1739985116876468200,9.02246826171875,-0.11269874294102192,0.06223221896402537,0.4153302386185154
1739985116886491100,9.0324912109375,-0.07853753014206886,0.05264437947273254,0.4414234784372151
1739985116896515000,9.04251513671875,-0.049994157224893566,0.06926189840510487,0.44540582607164975
1739985116906538200,9.052538330078125,-0.07860124302804469,0.05808306339532136,0.3663336045309901
1739985116916561200,9.06256103515625,-0.1129477492660284,-0.0031358868729323146,0.26766177950724956
1739985116926584300,9.072584228515625,-0.2888496750950813,0.012219064777716993,0.25058234215155245
1739985116936608000,9.08260791015625,-0.3655442077189684,-0.004245747810974717,0.1994907816113904
1739985116946631200,9.092631103515625,-0.35281449000537396,0.01194901566468179,0.09898969533387571
1739985116956654000,9.102654052734374,-0.36395080104768274,0.03027764936387539,0.0276921629153192
1739985116966678000,9.112677978515626,-0.32351708385050293,0.0038432314246892928,-0.010735447756992653
1739985116976701200,9.122701171875,-0.24386019428968428,0.007068330951035023,-0.036149482273031025
1739985116986724000,9.13272412109375,-0.18072072428762911,0.00010506780967116356,-0.028226187593629583
1739985116996747300,9.142747314453125,-0.13002689436078071,-0.018634119451791047,0.005320765764499083
1739985117006771200,9.152771240234374,-0.11543898155987262,-0.017588921247795222,0.00971321030347608
1739985117016794000,9.162794189453125,-0.06427227342426776,-0.005405804566293955,-0.02152514645187184
1739985117026817000,9.172817138671874,0.02508826402723789,-0.01590659418404102,-0.03981485464647412
1739985117036841200,9.18284130859375,-0.00010989011526107787,-0.039711905728653074,-0.08154171692673116
1739985117046864400,9.192864501953125,-0.07604571332633495,-0.04663673655577004,-0.09197055555311963
1739985117056887000,9.202886962890625,-0.1040466499298811,-0.02202799967378378,-0.031047126765875142
1739985117066910200,9.21291015625,-0.04892155955731869,-0.048102059867978095,-0.007876450729835779
1739985117076934100,9.22293408203125,0.041785131806135176,-0.06944200421236454,-0.03108878308366984
1739985117086957300,9.232957275390625,0.08520809394717216,-0.05628996943347156,-0.03248957152599469
1739985117096980000,9.24297998046875,0.1246206514030695,-0.03662972180433571,-0.004495530454115942
1739985117107004200,9.253004150390625,0.12398995228409766,-0.04386778329908848,-0.023909548237221315
1739985117117027300,9.26302734375,0.1222498306185007,-0.0694713764373213,-0.08254822708815336
1739985117127050200,9.27305029296875,0.12434183446168899,-0.07914952456057071,-0.09371333496668376
1739985117137074200,9.28307421875,0.08948796322345733,-0.08608684954307973,-0.03939896732196212
1739985117147097000,9.29309716796875,0.044376317343115805,-0.07521569224298,0.017542168629774823
1739985117157120300,9.303120361328125,0.043893502262234686,-0.061171969321370125,0.06335410826657899
1739985117167143200,9.31314306640625,0.08048691064417361,-0.03872136032134294,0.09471420997176319
1739985117177167000,9.3231669921875,0.12666413992941378,-0.03829064075388014,0.07867639975664205
1739985117187190000,9.33318994140625,0.18101473879814148,-0.013048355208709835,0.07669596652914769
1739985117197213200,9.343213134765625,0.17814415179789064,-0.004093918250128626,0.011246630415832622
1739985117207237000,9.353237060546874,0.16142624123096466,-0.0034680414367467163,-0.04123327921018936
1739985117217260000,9.363260009765625,0.12775135064423085,0.0037224545892328023,-0.06543355402229353
1739985117227283200,9.373283203125,0.039675592306256294,0.022942191909253597,-0.08669548296071589
1739985117237306000,9.38330615234375,-0.045102293530106544,0.03945917307659983,-0.11349566547237336
1739985117247330300,9.393330322265625,-0.06336100379824638,0.06782850460112094,-0.1700619858955033
1739985117257353000,9.40335302734375,-0.05578618462979793,0.0937421135365963,-0.2891376251909882
1739985117267376000,9.413376220703125,-0.04116846121251583,0.10890453828983009,-0.3917219109507277
1739985117277400300,9.423400390625,-0.07309738491475581,0.13094459372758865,-0.45920989501848813
1739985117287423200,9.43342333984375,-0.12456570634543895,0.12225173031464219,-0.4570723350005224
1739985117297446100,9.443446044921876,-0.021349662020802497,0.14318397064097224,-0.5504942401394247
1739985117307469000,9.453468994140625,-0.06467793161571025,0.11530461459048091,-0.6956553560722619
1739985117317493200,9.4634931640625,-0.00611468348801136,0.14926723607741296,-0.8663055719181895
1739985117327516400,9.473516357421875,0.06648176616728306,0.1685090390987694,-1.1381124884061515
1739985117337539000,9.4835390625,-0.0564367574930191,0.13763086655847728,-1.4689185602210462
1739985117347563300,9.493563232421875,-0.1214922902494669,0.09586502397470176,-1.7618557968907058
1739985117357586200,9.503586181640625,-0.08625321908593177,0.0730270230922848,-2.12332837125659
1739985117367609300,9.513609375,-0.04949029935598373,0.03948350380025804,-2.5591882242172956
1739985117377632300,9.52363232421875,0.08823533281385898,-0.0179755824778229,-3.0802117474615573
1739985117387656200,9.53365625,0.1978705965310335,0.03465082294680178,-3.549475857374072
1739985117397679400,9.543679443359375,0.20541911221444606,-0.009518062190711498,-4.0837852709099645
1739985117407702300,9.553702392578124,0.20634265680015085,-0.03272321588508784,-4.573712521883845
1739985117417726200,9.563726318359375,0.30839667160809037,-0.05498049427010119,-4.890167704524099
1739985117427749000,9.5737490234375,0.2844482252657413,-0.10845679452233016,-5.172958517971635
1739985117437772300,9.583772216796875,0.1453986510157585,-0.047697278459370135,-5.166667893394828
1739985117447795200,9.593795166015624,0.10805822365880012,-0.036862434581667186,-5.119792160451412
1739985117457819100,9.603819091796876,0.08757131594717502,-0.06090944592766463,-5.3002621248483655
1739985117467842300,9.61384228515625,0.1329763918161392,0.14422420040890574,-5.582119749099016
1739985117477865200,9.623865234375,0.2889899603486061,0.29733576388955113,-5.659037569084763
1739985117487889400,9.633889404296875,0.40627018586099145,0.4518435309689492,-5.416974779605865
1739985117497912000,9.643912109375,0.4151268615335226,0.6547595012560486,-4.83141916295737
1739985117507935200,9.653935302734375,0.13633797720372676,0.49001339488737283,-4.171456832361221
1739985117517958100,9.663958251953124,0.17833704402148723,0.5567654293633997,-3.3101667505174874
1739985117527982300,9.673982421875,0.26311551437973973,0.669893357501924,-2.4944740522444246
1739985117538005200,9.684005126953124,0.2321218257009983,0.538965276517719,-1.9330887079954147
1739985117548028200,9.694028076171875,0.30881226667165756,0.5993760522082447,-1.4711987801127135
1739985117558052400,9.70405224609375,0.3923153102666139,0.4862629563126713,-0.9830847891058773
1739985117568075300,9.7140751953125,0.4633148461192846,0.287804988347739,-0.5266183841092512
1739985117578098200,9.72409814453125,0.6931009223490953,0.12771562174372375,0.20134448318667708
1739985117588121000,9.73412109375,0.8110311362028122,0.06995090358257293,1.0564159097112715
1739985117598145300,9.744145263671875,0.9251543589890002,0.036873978888988496,1.8264232538692653
1739985117608168400,9.75416845703125,1.001269630420208,0.18955562651976943,2.6407170451298354
1739985117618191400,9.76419140625,1.1189771414339542,0.09276888459026814,3.1685096241176125
1739985117628215300,9.77421533203125,1.194603168043494,0.0649158320248127,3.6095334357127546
1739985117638238200,9.78423828125,1.1158195541858673,0.13033596030995248,3.906128610368073
1739985117648261400,9.794261474609375,0.7783037555992602,0.14214768639579414,4.136494824573397
1739985117658284300,9.8042841796875,0.3992021471709013,0.19738390899263322,4.395573923043907
1739985117668308200,9.81430810546875,0.06584989800453185,0.34089470043517645,4.532252091987431
1739985117678331100,9.8243310546875,-0.2963479218959808,0.477784685498476,4.560476315952837
1739985117688354300,9.834354248046875,-0.5758423241466284,0.5398005582980812,4.463406519298255
1739985117698378200,9.844378173828124,-1.068971293771267,0.43515323906131087,4.26012120424211
1739985117708401200,9.854401123046875,-1.480859319514036,0.4152073063585907,4.216832682135701
1739985117718424300,9.86442431640625,-1.717873593431711,0.394334102743119,4.212921061649919
1739985117728447200,9.874447265625,-1.7298258970320224,0.3659264119695872,4.134870145981013
1739985117738471200,9.88447119140625,-1.4552899939715862,0.4344142572622746,4.012242714221776
1739985117748494000,9.894494140625,-0.9081278208643198,0.5090639131203294,3.9100960526943203
1739985117758517200,9.904517333984375,-0.3510457267671823,0.5610579389255493,3.722870476557314
1739985117768541400,9.91454150390625,0.05804068555831909,0.6132552322179079,3.479826859347522
1739985117778564000,9.924564208984375,0.17992577451765537,0.6077783351767808,3.15995397721827
1739985117788587300,9.934587158203126,0.23443594786226749,0.5026050193045288,2.852251717615127
1739985117798610200,9.944610107421875,0.19553776966929434,0.44864626929759976,2.694655263805389
1739985117808634400,9.95463427734375,0.033570261168479915,0.38458822314590213,2.5660323910236356
1739985117818657300,9.9646572265625,-0.17545009040832518,0.24993425350636242,2.410392185848206
1739985117828680200,9.97468017578125,-0.39576574298143385,0.19968005710579453,2.178684347775578
1739985117838703000,9.984703125,-0.5290227053046226,0.1916211076822132,1.98457164247334
1739985117848727300,9.994727294921875,-0.5854015951305628,0.16123276448547838,1.6878494804374873
1739985117858750500,10.00475048828125,-0.5955436344385147,0.13104790797159074,1.433276461214572
1739985117868773000,10.014773193359375,-0.507451509487629,0.07438800924718379,1.3096424827612936
1739985117878797300,10.02479736328125,-0.34947628549337384,0.18299685252606868,1.2860166925020515
1739985117888820200,10.0348203125,-0.20317279459238052,0.13785342326797545,1.0381889097556471
1739985117898843400,10.044843505859374,-0.0068956047326326365,0.10473594736829399,0.8117229178592562
1739985117908866000,10.054865966796875,0.11500760440528392,0.06223733353056013,0.6103857777288183
1739985117918890200,10.06489013671875,0.1512462080001831,0.030956352343037723,0.42718974936883897
1739985117928913400,10.074913330078125,0.12286942382156849,0.022684563886374232,0.3167369221910834
1739985117938936300,10.084936279296874,0.014348258826136589,0.01999707836806774,0.23672873497456312
1739985117948960300,10.094960205078126,-0.059790744096040724,-0.04599610056467354,0.15841982595659793
1739985117958983200,10.104983154296875,-0.0771679953545332,-0.04094860791675746,0.10082408942049369
1739985117969006300,10.11500634765625,-0.10455810658335685,-0.034975378726050256,0.03605443353387527
1739985117979029200,10.125029296875,-0.018649755412340163,-0.029171514752879737,0.027963052278570828
1739985117989053200,10.13505322265625,-0.02118131971657276,0.01240508886910975,0.02635761724277399
1739985117999076400,10.145076416015625,-0.042213586351275444,-0.11793218661509454,-0.07038309358791447
1739985118009099300,10.155099365234374,-0.0302379018753767,-0.14890475944057105,-0.1485968077362515
1739985118019122400,10.165122314453125,0.10024901121258735,0.0010771277122199536,-0.13395096333618275
1739985118029146000,10.17514599609375,0.10566109938919543,-0.0718854518417269,-0.16366643963949754
1739985118039169300,10.185169189453125,0.07895020259618758,-0.07724953615814446,-0.18626219273125752
1739985118049192200,10.195192138671874,0.036757074511051174,-0.1085860469251871,-0.22063430833453312
1739985118059216400,10.20521630859375,0.10822539691925048,0.026514570503309368,-0.13708927962821907
1739985118069239000,10.215239013671875,-0.04309212275147438,-0.026580183085426687,-0.14753371768253853
1739985118079262200,10.22526220703125,-0.23265900131762027,-0.10089512709639965,-0.17924999414794146
1739985118089285000,10.23528515625,-0.3824614402502775,-0.09416055814437567,-0.269828693483863
1739985118099309300,10.245309326171874,-0.3983908307880163,-0.1345168992564082,-0.3313531112384051
1739985118109332200,10.255332275390625,-0.3239432003080845,-0.1566699135493487,-0.3067580010229721
1739985118119355100,10.265355224609374,-0.23485563457906244,-0.07751410537846386,-0.26231155931940303
1739985118129379300,10.27537939453125,-0.15487024371623992,-0.12096234809122978,-0.3010715711507015
1739985118139402200,10.28540234375,-0.10083294858038425,-0.0828570738416165,-0.26314861293174324
1739985118149425200,10.295425048828125,-0.04157821105718613,-0.08967296440154314,-0.2779259473575279
1739985118159448000,10.305447998046875,-0.008329436928033828,-0.08577164611406624,-0.2890230589006096
1739985118169472300,10.31547216796875,0.00717559071779251,-0.07744410888217389,-0.29579872704800214
1739985118179495400,10.325495361328125,-0.021107085436582563,-0.060713484964147205,-0.24049851757055146
1739985118189518300,10.335518310546876,0.008400748598575591,-0.06706745710074902,-0.19078162465076892
1739985118199541200,10.345541259765625,0.030248423269391058,-0.014673545257747172,-0.10253166965651325
1739985118209565200,10.355565185546874,-0.006761164698004722,-0.014379384616762398,0.006570642528007738
1739985118219588400,10.36558837890625,-0.024642273825407027,-0.05326053860969841,0.01957278854139149
1739985118229611300,10.375611328125,-0.002263268756866455,-0.04948993402980268,0.03370446830766741
1739985118239635200,10.38563525390625,-0.05333119269311428,-0.007255158760026097,-0.01567777441382641
1739985118249658400,10.395658447265625,-0.07850830404758453,-0.0013129092294722794,-0.07850060479831882
1739985118259681300,10.405681396484376,-0.13049568091630934,-0.018412804851308463,-0.038121736760647035
1739985118269704400,10.415704345703125,-0.0981336264938116,-0.014380042203888296,0.03670953644174151
1739985118279728000,10.42572802734375,-0.10723229422867298,0.07303155313692987,0.20936856222627684
1739985118289751600,10.43575146484375,-0.09082827191650866,0.04572371336407959,0.3281789747143164
1739985118299774500,10.4457744140625,-0.08229425232708454,0.022209932111948726,0.3399762338833883
1739985118309797600,10.455797607421875,0.06391980672478675,0.07247866849452257,0.3604150281369686
1739985118319821600,10.465821533203124,0.2277560317069292,0.0821785169929266,0.3375990198906511
1739985118329844500,10.475844482421875,0.3426467317342758,0.05347155101187527,0.21677723104758187
1739985118339867600,10.48586767578125,0.380500369310379,0.05094846227504313,0.12611917373198084
1739985118349891300,10.495891357421876,0.34876667591929433,0.04294906101897358,0.14398346872190013
1739985118359914500,10.50591455078125,0.22215163582861422,0.05862418453469872,0.22407116918172687
1739985118369937400,10.5159375,0.06526771420240401,0.11892207443527876,0.2848159625995904
1739985118379960600,10.525960693359375,-0.012885785058140755,0.07054777349717915,0.24428203643094748
1739985118389984500,10.535984619140624,-0.04897358200550079,0.05388648848831653,0.21795707021560518
1739985118400007400,10.54600732421875,-0.002624503284692764,0.03786540107913315,0.16666821527136488
1739985118410030600,10.556030517578124,0.09197393482029438,0.02826704019382596,0.1594303181733936
1739985118420053500,10.566053466796875,0.03353928150832653,0.04970131175816059,0.18811684415461494
1739985118430077400,10.576077392578124,-0.012106032857298851,0.033921485758945345,0.1745002058049664
1739985118440100400,10.586100341796875,0.03151157507300377,0.011262860031425952,0.18223094618748872
1739985118450123500,10.59612353515625,0.17003215701282023,0.025607392530515787,0.1483653736005537
1739985118460147500,10.6061474609375,0.22935177646577357,0.03854980314671993,0.09872160071590914
1739985118470170600,10.616170654296875,0.18003975628614424,0.009069222444668412,0.06498377356133424
1739985118480193500,10.626193603515626,0.08152735960781574,-0.018473960454016922,0.0010694147632224484
1739985118490216400,10.636216552734375,0.009445873737335204,0.008260098018869757,-0.018297749937162735
1739985118500240600,10.64624072265625,-0.055931730580329894,0.0033460224922746418,-0.03896431136489845
1739985118510263600,10.656263671875,-0.09101999509632587,-0.012001768765226005,-0.020643623510142785
1739985118520286500,10.666286376953124,-0.09443769458532333,-0.006153554193675518,0.0754230650830781
1739985118530309400,10.676309326171875,-0.12497019549310207,-0.013463804141804574,0.08988275296101346
1739985118540333600,10.68633349609375,-0.12171733117699622,-0.009825301508978009,0.08055166470976546
1739985118550356500,10.6963564453125,-0.15879589272737502,0.007060659101232886,0.07752837136583403
1739985118560379400,10.70637939453125,-0.22426000628471374,-0.018443199989572168,0.01801857223617844
1739985118570402300,10.71640234375,-0.2307528754353523,-0.02830810285657644,-0.060300291920220475
1739985118580426500,10.726426513671875,-0.13519348334372042,-0.01818776392377913,-0.0378645151631441
1739985118590449700,10.73644970703125,-0.05379471855163574,-0.004906549807265401,0.028260984912374987
1739985118600472600,10.74647265625,-0.07869652009606361,-0.003704042149707675,0.0198614510233514
1739985118610496500,10.75649658203125,0.008444587740302085,0.010774711188301443,0.07019136127494276
1739985118620519400,10.76651953125,0.036439094603061675,0.0035249592557549474,0.07916991889462806
1739985118630542600,10.77654248046875,0.11535948658287525,-0.028513781496509908,0.05102518077306449
1739985118640565500,10.7865654296875,0.08956979628801345,-0.037135260173678394,0.08290093124965205
1739985118650589400,10.79658935546875,-0.17554829008579254,-0.00918013547323644,0.09987583051864057
1739985118660612600,10.806612548828125,-0.30077625973224636,-0.022682737255468963,0.05469430687301792
1739985118670635500,10.816635498046875,-0.39182957257628437,-0.05887004905454814,0.06083461799263022
1739985118680658700,10.82665869140625,-0.5437631783187389,-0.06927030090726911,0.22792974430602042
1739985118690682400,10.836682373046875,-0.4847165305882692,-0.04380860045775771,0.30734252291265873
1739985118700705500,10.84670556640625,-0.2349924127012491,0.1366920513384044,0.23541133223306387
1739985118710728400,10.856728515625,0.46090369332432746,0.12018895256593823,0.12413809205051511
1739985118720752400,10.86675244140625,0.5638140327006578,0.11008315361514687,0.11698049364713951
1739985118730775600,10.876775634765625,0.42078503342568874,-0.0304519099522382,-0.2601437320273369
1739985118740798500,10.886798583984374,0.5786269864290953,-0.04690802777782082,-0.3206302763678133
1739985118750821600,10.896821533203125,0.3839297592371702,0.050363501993939276,-0.0997963720742613
1739985118760845300,10.90684521484375,0.12085457686781882,0.07990158503688871,0.07333077354552224
1739985118770868500,10.916868408203126,-0.007709259203076363,-0.019817557082697747,0.0718945667299442
1739985118780891400,10.926891357421875,-0.013843816435337065,0.08784984062761068,0.062089084166288375
1739985118790914600,10.93691455078125,0.11274375112652778,0.21293825567290187,0.17132064418708903
