time,seconds_elapsed,z,y,x
1740240343490349800,0.033349853515625,-0.6395715767353772,0.08596241944581269,-0.035513138864561915
1740240343500370700,0.04337060546875,-0.33516660511195656,0.15105477708131074,-0.15559057561373338
1740240343510392600,0.053392578125,0.040294016465544695,0.1577466759353876,-0.2484739351628348
1740240343520413700,0.06341357421875,0.2447738020032644,0.16068229099586606,-0.28907667051767927
1740240343530435800,0.073435791015625,0.3013631197094917,0.13520970382615924,-0.27110485089952124
1740240343540456700,0.083456787109375,0.4035053973227739,0.13994403887167572,-0.21318320687729864
1740240343550477800,0.093477783203125,0.30880291432142254,0.1362719262301922,-0.19252711661122737
1740240343560499700,0.103499755859375,0.23143910413384436,0.11502338649630546,-0.19625738918073474
1740240343570520600,0.1135205078125,0.24780922417640686,0.0962210708707571,-0.20357213264089077
1740240343580542700,0.123542724609375,0.14856968226730824,0.0988404595889151,-0.18909962638057767
1740240343590563800,0.133563720703125,0.05449088412225246,0.11885785009264946,-0.20856135576292872
1740240343600584700,0.143584716796875,-0.04133914160430431,0.15049465898051856,-0.1750579858181998
1740240343610606600,0.153606689453125,-0.14321137010455132,0.0935328547000885,-0.20051069924365728
1740240343620627700,0.163627685546875,-0.2513350602149963,0.07349938984438777,-0.14090769627206026
1740240343630648600,0.173648681640625,-0.43482115756273265,0.10543372037410735,-0.06245101281385868
1740240343640670700,0.183670654296875,-0.7128185992538929,0.1206552549034357,0.08044383868742734
1740240343650691800,0.19369189453125,-0.6859943052142858,0.06886120864972471,0.13699874266739934
1740240343660713700,0.203713623046875,-0.6446154161214828,0.0416010074108839,0.19244305505696682
1740240343670734600,0.213734619140625,-0.5315332268208265,-0.00849032657817006,0.2656681580046192
1740240343680755700,0.223755615234375,-0.3728057231545448,-0.0784277861572802,0.3137885572468862
1740240343690777900,0.23377783203125,-0.2436626258909702,-0.15393807743266225,0.33551483402773735
1740240343700798700,0.243798828125,-0.22350188139379024,-0.1800724895119667,0.3008136691331863
1740240343710820600,0.253820556640625,-0.20365034897625445,-0.16515695219188928,0.27965883556473997
1740240343720841700,0.263841796875,-0.15933073025643824,-0.1318926882326603,0.25075685846824197
1740240343730862600,0.273862548828125,-0.14135843571424483,-0.14395166707783938,0.20755290937274692
1740240343740884700,0.283884765625,-0.08530746266841888,-0.17531711167842148,0.1440289335651323
1740240343750905900,0.29390576171875,-0.18649755412340163,-0.19331804779320955,0.13423855723906308
1740240343760926700,0.3039267578125,-0.13528876041173934,-0.22865824124366044,0.06902165990844368
1740240343770948600,0.313948486328125,-0.15089198773503304,-0.2807788891032338,-0.02905413545090705
1740240343780969700,0.3239697265625,-0.29463410371541976,-0.24107363231107592,-0.07560103829875588
1740240343790992000,0.333991943359375,-0.33552199442088604,-0.20900296205058694,-0.12553444177974016
1740240343801012700,0.3440126953125,-0.2739437823861837,-0.24549101036190984,-0.21614687898848203
1740240343811033600,0.35403369140625,-0.2623947988897562,-0.23075915904566643,-0.3056582961527631
1740240343821055700,0.3640556640625,-0.09366787925660609,-0.18776742792874573,-0.37816407184991985
1740240343831076400,0.374076416015625,0.1428115571320057,-0.19378668821826575,-0.43859614605680103
1740240343841098200,0.38409814453125,0.1766471912384033,-0.23237623885348438,-0.5218476260434836
1740240343851119400,0.394119384765625,0.10189151772260666,-0.3104083036914468,-0.5938773817267269
1740240343861140200,0.40414013671875,0.03025836014151573,-0.3277648044228554,-0.5617721516095101
1740240343871162400,0.414162353515625,-0.13101999705135822,-0.29086379139646884,-0.5562762210743502
1740240343881183500,0.42418359375,-0.25903905872106553,-0.3077547204427421,-0.5588015017682686
1740240343891204400,0.434204345703125,-0.2937479685306549,-0.37343729905635115,-0.5832700995272025
1740240343901226200,0.444226318359375,-0.2861228804796934,-0.4215479806222021,-0.5965082051543519
1740240343911247400,0.454247314453125,-0.21476620175242422,-0.44577948168963194,-0.5600391538044437
1740240343921269500,0.46426953125,-0.221480604699254,-0.49223406661152835,-0.5285589602503925
1740240343931290400,0.474290283203125,-0.2910439702689647,-0.5240212437555194,-0.5708343963241205
1740240343941311200,0.484311279296875,-0.5955407118290662,-0.564247309551388,-0.6653050067983567
1740240343951333400,0.49433349609375,-0.869592630764842,-0.5237982486546039,-0.745633073619008
1740240343961354200,0.504354248046875,-0.9522913722395896,-0.47334494948536154,-0.7620838576823472
1740240343971376400,0.51437646484375,-0.9734931502223014,-0.4780271159522235,-0.7330076930627226
1740240343981397500,0.5243974609375,-0.8569733876883983,-0.4984446116894483,-0.6958579659722745
1740240343991418400,0.53441845703125,-0.672217124274373,-0.5360311227619647,-0.6442961210392415
1740240344001440300,0.544440185546875,-0.5599415751814842,-0.6088809626564383,-0.6131295600116252
1740240344011461400,0.55446142578125,-0.5540647921025753,-0.6568669949293137,-0.6098985422011465
1740240344021482200,0.564482177734375,-0.5426841509103775,-0.6960565572842955,-0.6547632275830954
1740240344031504400,0.57450439453125,-0.5527706606388092,-0.8346846912518143,-0.7944696583066135
1740240344041525200,0.584525146484375,-0.8556529527395963,-1.0087000726819038,-0.9438511684134602
1740240344051547400,0.59454736328125,-1.098015017426014,-1.0190437720417975,-0.8790607893992215
1740240344061568300,0.604568359375,-1.4321686461031435,-0.9424982924997806,-0.7178631692923605
1740240344071589000,0.614589111328125,-1.5579595103293657,-0.9739505386009811,-0.7058945721443742
1740240344081611500,0.624611572265625,-1.5244325037807225,-1.0707248594403267,-0.7683095272641629
1740240344091632400,0.63463232421875,-1.3295260177522896,-1.1318754937127231,-0.8293545092049985
1740240344101654300,0.644654296875,-1.2174059514820574,-1.1568439307525753,-0.8749009663060306
1740240344111675100,0.654675048828125,-1.1465028617411852,-1.1016595114082097,-0.912212605959922
1740240344121696300,0.6646962890625,-1.0960194596946238,-1.0381827722758055,-0.9158333537403494
1740240344131718400,0.674718505859375,-1.1271037492662668,-0.982880571770668,-0.9781059047147631
1740240344141739300,0.6847392578125,-1.119893087235093,-0.9327610346004366,-1.12578725984022
1740240344151760400,0.694760498046875,-1.1472346831470728,-0.8507195879906415,-1.260076341690123
1740240344161782300,0.7047822265625,-1.2040823595285415,-0.7335559745952487,-1.390089499786496
1740240344171803100,0.71480322265625,-1.109171202212572,-0.6053901979312301,-1.4106862976133823
1740240344181825300,0.7248251953125,-0.9435714746892452,-0.4922010411247611,-1.3898412241138518
1740240344191846400,0.734846435546875,-0.8618424550294875,-0.5115177360132336,-1.4606886381447315
1740240344201867300,0.7448671875,-0.6868348476916551,-0.5540159845247864,-1.5120304105862974
1740240344211889200,0.75488916015625,-0.6035071606636047,-0.5116629897028208,-1.4791077996715902
1740240344221910300,0.76491015625,-0.5982061316460371,-0.4215180238753557,-1.4499603233814238
1740240344231932400,0.774932373046875,-0.5147258844047784,-0.3409223921597004,-1.387016083690524
1740240344241953300,0.784953369140625,-0.39993104596734047,-0.2548690795600414,-1.3111878125071526
1740240344251974400,0.794974365234375,-0.28978841724991794,-0.12141484109908342,-1.2852660202652215
1740240344261996300,0.804996337890625,-0.242844295245409,-0.029962007543444632,-1.3793746290266513
1740240344272017200,0.81501708984375,-0.26372107905745507,0.04230535628795624,-1.4490182202257216
1740240344282038300,0.825038330078125,-0.3200999688833952,0.20434096158891915,-1.4689892873696981
1740240344292060400,0.835060302734375,-0.3527408402472734,0.412893695653975,-1.4598597861051559
1740240344302081300,0.845081298828125,-0.18357669824063777,0.5435995121896267,-1.457307032882422
1740240344312103200,0.855103271484375,-0.010671031618118285,0.658296735471487,-1.4668806246526538
1740240344322124300,0.865124267578125,0.26905425677895545,0.7946446495473385,-1.4491579209573566
1740240344332145200,0.875145263671875,0.546474775364995,0.9314920375779271,-1.3760335019052028
1740240344342167300,0.885167236328125,0.8594009070962667,0.9502882157236338,-1.2391009198091922
1740240344352188400,0.8951884765625,1.2086352005273102,0.981125544796884,-1.1104377150170504
1740240344362209300,0.905209228515625,1.4705103594571352,0.9908423444300889,-1.0122232783719898
1740240344372231200,0.915231201171875,1.5990069755107164,1.0682029397472739,-0.9811568897832185
1740240344382252300,0.925252197265625,1.6753981412738561,1.1901207619324325,-0.853535960585624
1740240344392274400,0.9352744140625,1.8113064948886632,1.267128013767302,-0.6705233990337699
1740240344402295300,0.94529541015625,1.8384341557890176,1.2940209891289471,-0.5146395212955772
1740240344412316400,0.95531640625,1.9460189167171715,1.3006506364017725,-0.43020398262348025
1740240344422338300,0.96533837890625,1.9846745183259247,1.321658937638998,-0.4253057257205248
1740240344432359200,0.975359130859375,1.971326376453042,1.3908306735426186,-0.32610607743039727
1740240344442380500,0.985380615234375,2.1520780804008246,1.5081076841846108,-0.15028211220838128
1740240344452402400,0.99540234375,2.4149019183576104,1.4514704356834291,-0.04570515479408204
1740240344462423300,1.00542333984375,2.6722248208105563,1.3719973782569168,0.04995159672480076
1740240344472445200,1.015445068359375,2.9573002380639313,1.3755693915247917,0.20446257867459205
1740240344482466300,1.02546630859375,2.999996054974198,1.3362389593943953,0.39817769949398935
1740240344492487400,1.0354873046875,2.9009704480767247,1.272040335728228,0.6313701501011848
1740240344502509300,1.04550927734375,2.8210160368740556,1.2435624292626977,0.8682672273799776
1740240344512530400,1.055530517578125,2.741862420660257,1.253908758971095,1.044680463732034
1740240344522551300,1.06555126953125,2.7517595452964305,1.2733610629379748,1.0804290918529034
1740240344532573200,1.0755732421875,2.7805215294003487,1.272917118562758,0.9782083421759307
1740240344542594600,1.085594482421875,2.7695161512613296,1.2877508228182792,0.8398794834159314
1740240344552616400,1.095616455078125,2.7541677754819394,1.3409621885240077,0.8040173119179904
1740240344562637300,1.10563720703125,2.7206366772800683,1.324297761709988,0.724267629507184
1740240344572658200,1.115658203125,2.738651057398319,1.2916750105246901,0.6421105936937034
1740240344582680300,1.125680419921875,2.798793683671951,1.3067527526691556,0.5966058568425476
1740240344592701400,1.135701416015625,2.969380551958084,1.4115376537457107,0.5600066032417118
1740240344602722300,1.145722412109375,3.075240388789773,1.4763520712226628,0.5609351893287152
1740240344612744400,1.155744384765625,3.217745071929693,1.4482935592129826,0.5596816821362823
1740240344622765300,1.165765380859375,3.257742151275277,1.4240499293163418,0.5498173637911677
1740240344632787200,1.175787109375,3.248334855982661,1.4262006776094436,0.5328297694373876
1740240344642808300,1.185808349609375,3.0886738708585497,1.499507613621652,0.5547268362078815
1740240344652829400,1.195829345703125,3.0552877340853213,1.5937264047592878,0.5657039381004869
1740240344662851300,1.205851318359375,2.912301404908299,1.6220494129240512,0.518576860744506
1740240344672872200,1.2158720703125,2.724502120536566,1.6790844285711646,0.6194162390656769
1740240344682893300,1.225893310546875,2.620305248481035,1.8241931567296386,0.8828262794125825
1740240344692915500,1.23591552734375,2.643483294972777,1.8580805210232734,0.9575979542151093
1740240344702936300,1.245936279296875,2.4841385361909865,1.8664044049933552,0.9181044404774904
1740240344712958200,1.255958251953125,2.550707396119833,1.9096359362155197,0.9892118936840444
1740240344722979300,1.265979248046875,2.594508543923497,1.9057205163374542,1.1562666423212735
1740240344733000200,1.276000244140625,2.6249650569856167,1.8703651253178715,1.419192114021629
1740240344743022300,1.286022216796875,2.7016870621383187,1.8204720903798937,1.6850940442495046
1740240344753043500,1.29604345703125,2.532721073052287,1.7609528567016124,1.9710043048918247
1740240344763064300,1.306064208984375,2.317825107440352,1.713237458063662,2.1721590376600624
1740240344773086200,1.316086181640625,2.1571640053629872,1.770918370398879,2.3643257234610617
1740240344783107300,1.326107421875,2.026221165201068,1.8089800977677106,2.613102769756317
1740240344793129500,1.33612939453125,1.9700597175180912,1.7188985525652765,2.897430583512783
1740240344803150300,1.346150390625,1.7189081971764564,1.5778198105752468,3.2924633360445497
1740240344813171500,1.35617138671875,1.693138380625844,1.5484741813644767,3.8147219540417194
1740240344823193300,1.366193359375,1.5069389326661824,1.5892083428129553,4.219266339023411
1740240344833215000,1.376215087890625,1.1999340076774359,1.6881451023831961,4.4631952146351335
1740240344843236000,1.386236083984375,0.977951298674941,1.7705717489182948,4.584847956143319
1740240344853258200,1.39625830078125,0.6560837355971336,1.7919123508498072,4.6094066433385015
1740240344863279000,1.406279052734375,0.3890548471659422,1.8171221954300998,4.804630817013979
1740240344873301000,1.416301025390625,0.12928338251709937,1.701355589351058,5.012640530243516
1740240344883322000,1.426322021484375,-0.1968248868703842,1.608122009858489,5.223611431366205
1740240344893343000,1.436343017578125,-0.4327507810294628,1.6699755317032337,5.427478637963533
1740240344903365000,1.446365234375,-0.6350748498380184,1.657826244226098,5.593251968488097
1740240344913386000,1.456385986328125,-0.9883610490083694,1.6195286622747778,5.552507870167494
1740240344923407000,1.466406982421875,-1.366081432211399,1.6785253333836794,5.36474482615292
1740240344933429000,1.476428955078125,-1.6988924141079187,1.7981299101904034,5.207784916681051
1740240344943449900,1.486449951171875,-2.050133371186256,1.836371524170786,5.327675032430887
1740240344953471000,1.496470947265625,-2.3213854302704333,1.73528080143705,5.4570525229722255
1740240344963493000,1.5064931640625,-2.5954905406981705,1.7481984429381787,5.680455035644769
1740240344973514000,1.516513916015625,-3.0713463039606808,1.723101557213068,5.838971526908874
1740240344983536000,1.5265361328125,-3.7199627724170683,1.6871026075929403,5.667598476681113
1740240344993557000,1.536556884765625,-4.396790020835399,1.7005289292685686,5.3560418797373766
1740240345003577900,1.546577880859375,-5.310435143816471,1.7045114230334757,5.143411520969868
1740240345013600000,1.55660009765625,-6.0554082922220225,1.5388460829280315,4.930371996879577
1740240345023621000,1.56662109375,-6.606742198055982,1.1264508383154868,4.67782639183104
1740240345033642000,1.57664208984375,-7.1142001372843975,0.8526528941407799,4.615118591244518
1740240345043664000,1.586663818359375,-7.395651518821716,0.8129523865889757,4.698859242987632
1740240345053685000,1.59668505859375,-7.605884168797731,0.6627341333970427,4.495568374973535
1740240345063707100,1.60670703125,-7.978680539602041,0.28979870118191464,4.077618564973771
1740240345073728000,1.61672802734375,-8.357776887333392,0.1537610038327053,3.8169220944344997
1740240345083749000,1.6267490234375,-8.717961029323934,0.1781834060960449,3.548990704205632
1740240345093771000,1.63677099609375,-9.189161660256982,0.045051759786112235,3.0108085408896206
1740240345103791900,1.6467919921875,-9.426704926484822,-0.19649481466580182,2.4672470226228236
1740240345113813000,1.65681298828125,-9.322917219752073,-0.3074984075941145,2.0536972011476755
1740240345123835100,1.666835205078125,-8.892363656505943,-0.5595739839781075,1.6350702225387095
1740240345133856000,1.67685595703125,-8.272652964538334,-0.8461222502630203,1.2669510497651995
1740240345143878000,1.6868779296875,-7.595384402093291,-0.9980296986509114,1.0750934299133716
1740240345153899000,1.69689892578125,-7.002656994119286,-1.442136497887969,0.5672646846111864
1740240345163920000,1.706919921875,-6.674671824944019,-5.721677857393026,-2.743855932565033
1740240345173942000,1.71694189453125,-6.93605130931139,-8.94879924495518,-2.5167086804062127
1740240345183963100,1.726963134765625,-7.51679368045926,-4.056831213010847,3.3138752496466037
1740240345193984000,1.73698388671875,-7.513659474086761,-0.7090363042362033,4.927834002834558
1740240345204006000,1.747005859375,-8.181032080939412,-1.1997613545242696,1.3077135605253278
1740240345214027000,1.757027099609375,-10.067026444804668,1.049393463728577,-0.7267907182440161
1740240345224048000,1.767048095703125,-10.718445695722103,4.10031730351597,-2.031017751827836
1740240345234070000,1.777070068359375,-9.312965734580159,4.0243233203768725,-4.700581244474649
1740240345244091100,1.787091064453125,-7.734601734125614,3.229435509723425,-6.852039731672406
1740240345254113000,1.797113037109375,-6.336510129669309,2.989973550392687,-7.40124013260901
1740240345264134000,1.8071337890625,-4.711467380148172,3.0549516339987512,-6.483043337672949
1740240345274155300,1.8171552734375,-3.2582354877501722,2.6891341622963547,-5.246944960680604
1740240345284177200,1.82717724609375,-2.136996246603131,2.1617286829300224,-3.993591205243766
1740240345294198000,1.837197998046875,-1.4967162293374539,1.8099127024427055,-2.8906612355083223
1740240345304219000,1.847218994140625,-1.6266905167281627,1.683296785569191,-2.2821152038946746
1740240345314241000,1.857240966796875,-2.084755771756172,2.0020109991826116,-2.321497658473253
1740240345324262100,1.86726220703125,-2.269417927145958,2.696332549367845,-2.8773844053059814
1740240345334284000,1.877283935546875,-2.1826988441139457,3.1568384755462406,-3.70487100174725
1740240345344305200,1.88730517578125,-1.5593337212920189,3.203875244270265,-4.623636244221031
1740240345354326000,1.897325927734375,-0.6755582513958215,3.3265058908998966,-5.1616649705410005
1740240345364348000,1.907347900390625,0.050719548889994616,3.670300331364572,-5.09607226216793
1740240345374369000,1.917369140625,0.6248714357316494,3.9189550664544104,-4.866764909365773
1740240345384390100,1.92739013671875,1.0890180564999579,3.87192998816818,-4.832513095673918
1740240345394412000,1.937412109375,1.4819868622392416,3.8314614919185637,-4.748557632136345
1740240345404433000,1.947432861328125,1.843776685860753,3.9113381617099043,-4.527928675830364
1740240345414455000,1.957455078125,2.3477035283535717,3.8370322777882215,-4.317718822208047
1740240345424476200,1.96747607421875,2.7926316539108753,3.5375440120398998,-4.2648540779829025
1740240345434497000,1.9774970703125,3.136348645225167,3.31178470710814,-4.2171790113553405
1740240345444519200,1.987519287109375,3.0870763725340367,3.2275077565312382,-4.082210861200094
1740240345454540000,1.9975400390625,2.878491489765048,3.178926973235607,-3.8482431153714654
1740240345464561000,2.007560791015625,2.8456220703423023,3.0958605674922466,-3.637938569203019
1740240345474583000,2.0175830078125,2.3625515533953902,2.9413638332635164,-3.429650623553991
1740240345484604200,2.027604248046875,1.938805916598439,2.865706534732878,-3.0851702466517685
1740240345494626000,2.0376259765625,1.8546838643223047,2.8879452545478936,-2.8963462954074144
1740240345504647000,2.04764697265625,1.9489415261656045,2.833005165353417,-2.792758495160937
1740240345514668000,2.05766796875,2.0200988829284907,2.7012232440188524,-2.6737887091264128
1740240345524690200,2.067690185546875,1.947211925894022,2.3389903528049585,-2.526572195033729
1740240345534711000,2.0777109375,2.8085189588725563,2.1608508771821855,-2.300037229554355
1740240345544732200,2.087732177734375,3.589344341903925,2.5871704561203717,-1.9604320574730634
1740240345554754000,2.097754150390625,3.750241590824723,2.634423790204525,-1.9458881299443542
1740240345564775000,2.10777490234375,4.167446427676081,2.443447044840455,-1.9287430800065397
1740240345574796000,2.117796142578125,4.200907967773079,2.292519985792041,-1.9312696758747099
1740240345584818200,2.127818115234375,3.7218852649122476,2.080571179547906,-1.9775898207619784
1740240345594839000,2.137839111328125,3.6137352713167665,1.722813972443342,-2.157407166469097
1740240345604861000,2.14786083984375,3.2718630310863253,1.5071651426374912,-2.559998956078291
1740240345614882000,2.157882080078125,3.463584457337856,1.4608359376609326,-2.9299451981484887
1740240345624903000,2.16790283203125,3.5185306840121746,1.6854922497868536,-2.492634561857581
1740240345634925000,2.177925048828125,2.667453368625045,1.175090073800087,-2.6105247359618544
1740240345644946200,2.1879462890625,2.098629398807883,0.7385463302284478,-2.388725566832721
1740240345654967000,2.197967041015625,2.265471235346794,0.6843810247987508,-2.0999889967232943
1740240345664989000,2.207989013671875,2.562119016972184,0.91433778142035,-1.8394098689533769
1740240345675010000,2.218010009765625,2.4612048198491334,1.1356950520008802,-1.6353575150474906
1740240345685032200,2.2280322265625,2.844110496735573,1.2257236979722976,-1.6557216731622815
1740240345695053000,2.238052978515625,3.7942712866872546,1.4807543978348374,-1.830393180413544
1740240345705074200,2.24807421875,3.7853228410780426,2.04811267901361,-1.7158379959508776
1740240345715096000,2.258095947265625,2.8100422229170796,2.405914017520845,-1.2672609924972056
1740240345725117000,2.268116943359375,1.5627736326128243,1.9059125317782162,-1.3743117926791308
1740240345735138000,2.278137939453125,1.0945838739335536,0.9078615711435675,-2.0727863708905874
1740240345745160200,2.28816015625,1.6002151822566986,0.6817129746332764,-2.5426903861418366
1740240345755181000,2.29818115234375,2.0082108767360447,1.1042372529417275,-2.529192022143304
1740240345765203000,2.308202880859375,2.020036339086294,1.5216189076647162,-2.370614302211255
1740240345775224000,2.31822412109375,2.120875717407465,1.3212369128346442,-2.5428341785266992
1740240345785245000,2.328244873046875,1.9545476756095885,0.9843839620709419,-2.8874814364284274
1740240345795267000,2.33826708984375,1.4199790266156196,0.8750184552058577,-2.983895984044671
1740240345805288200,2.3482880859375,1.0034756160318852,0.6358399889916181,-2.867208463728428
1740240345815309000,2.35830908203125,0.8764210154801607,0.601854132759571,-2.2461295521475373
1740240345825331000,2.3683310546875,0.3662222531110048,0.1961766520947218,-1.4389176819719374
1740240345835351600,2.3783515625,-0.13174129706323146,-0.3975330449149012,-1.683268728518486
1740240345845373700,2.388373779296875,-0.23781916055977342,-0.4932888363614678,-2.334733133751899
1740240345855394600,2.39839453125,-0.1796633241891861,0.30963731931895017,-1.48622771467939
1740240345865415700,2.408415771484375,-1.1275240205049515,0.1924623077467084,-1.4515860248871146
1740240345875437600,2.4184375,-0.5280430466175079,-0.010199322453141212,-2.9403379973471164
1740240345885458400,2.42845849609375,-1.6400614549547432,2.504902215017378,-4.757391511455178
1740240345895479600,2.4384794921875,-1.9057465275615453,3.0108871590837833,-2.342716095329821
1740240345905501700,2.448501708984375,-1.0876216337054967,-0.7734609917432069,-1.6054188883796334
1740240345915522600,2.4585224609375,-1.484848681411147,-2.0963570699617264,-0.33255043126419187
1740240345925544400,2.46854443359375,-1.704544740781188,-0.6922612566545605,1.2585263357691465
1740240345935565600,2.478565673828125,-1.390233292171359,-0.9311810719326138,0.9620018882624805
1740240345945586400,2.48858642578125,-1.0328069244563578,-0.9925935720115899,-0.024643735130131243
1740240345955608600,2.498608642578125,-0.8503641986817121,-1.066119411471486,-1.3059750462949276
1740240345965629700,2.508629638671875,-1.1683838541597127,-1.0090548774689436,-1.9117546819351612
1740240345975650600,2.518650634765625,-1.5933984879791736,-0.7943705087810754,-1.8108824242576955
1740240345985672400,2.52867236328125,-1.8365987570554017,-0.7673635516509413,-1.4796103423662483
1740240345995693600,2.538693603515625,-2.234306866276264,-0.8519090900361538,-1.0979792154602706
1740240346005715700,2.5487158203125,-2.57204887483418,-1.0074357518345116,-0.7630817096132785
1740240346015736600,2.558736572265625,-2.6311796937167644,-1.0184420067563653,-0.4446405407875776
1740240346025757400,2.56875732421875,-2.677610020980239,-0.9610343584045767,-0.2649984785821289
1740240346035779600,2.578779541015625,-2.610918995976448,-1.0449567964553832,-0.2779175813879818
1740240346045800400,2.588800537109375,-2.515032856148481,-1.0698229421645402,-0.04062975122593343
1740240346055821300,2.5988212890625,-2.4285130950808522,-1.2322218278199433,0.09722484108582138
1740240346065843500,2.608843505859375,-2.502815764132142,-1.3944307438611983,-0.07975603908635676
1740240346075864600,2.618864501953125,-2.9826959606051444,-1.314361181846261,-0.2713127762954682
1740240346085886500,2.628886474609375,-3.60494406209588,-1.2635668141543865,-0.43438466584160923
1740240346095907300,2.6389072265625,-3.886806947043538,-1.3210296998247504,-0.5906380344793201
1740240346105928400,2.648928466796875,-3.7476352077186106,-1.3640101788952945,-0.502062363795191
1740240346115950600,2.65895068359375,-3.16388956310153,-1.386413441622257,-0.3512343081418425
1740240346125971500,2.668971435546875,-3.0143618494570252,-1.3716267913788556,-0.13048698615320026
1740240346135992600,2.67899267578125,-3.238499106144905,-1.397529294398427,0.17091799993664025
1740240346146014500,2.689014404296875,-3.5512276694774627,-1.479820624116063,0.4520832214763388
1740240346156035300,2.699035400390625,-3.8116643200367686,-1.496594356523454,0.7086167636498808
1740240346166057500,2.709057373046875,-4.105743127956986,-1.4479507371246814,1.0902277245506644
1740240346176078600,2.71907861328125,-4.368606128880382,-1.3982201992720364,1.5759911338433623
1740240346186099500,2.729099365234375,-4.4813872894078495,-1.3932383192062376,2.15151723164767
1740240346196121300,2.739121337890625,-4.100927252107859,-1.35556062271893,2.6600600435033437
1740240346206142500,2.749142578125,-3.752220197421312,-1.3900918378740548,3.110958475641906
1740240346216163600,2.75916357421875,-3.720534434825182,-1.2748071700930594,3.7321275497242805
1740240346226185500,2.769185546875,-3.8926562575936314,-1.0175362900882958,4.369299664102495
1740240346236206600,2.77920654296875,-3.994868677833676,-0.7866606650561094,4.989733701908588
1740240346246228500,2.789228515625,-3.756576639065146,-0.5327922869712114,5.285920880284905
1740240346256249300,2.799249267578125,-3.506545062664151,-0.46244683111310003,5.224171987858415
1740240346266270700,2.809270751953125,-3.1540169883847233,-0.16680208905041216,5.297272879904508
1740240346276292600,2.819292724609375,-2.779300463172793,0.12448153519332408,5.290639725500345
1740240346286313500,2.8293134765625,-2.47702665835917,0.3668360010951757,5.227652231189608
1740240346296334600,2.83933447265625,-2.099908917224407,0.5089525617003441,5.270183212926984
1740240346306356500,2.8493564453125,-1.7606319541841744,0.6953811422407626,5.20390602942109
1740240346316377600,2.859377685546875,-1.5498995379924774,0.869124428731203,5.079888604608178
1740240346326398700,2.869398681640625,-0.9955950919151305,1.060464746710658,5.113296368691325
1740240346336420600,2.879420654296875,-0.6935258697628974,1.2056254973173142,5.357221444910764
1740240346346441500,2.88944140625,-0.6926140156149864,1.2503881836295128,5.547617760038375
1740240346356463400,2.89946337890625,-0.5800304234862327,1.461099557033181,5.7623091429889195
1740240346366484700,2.909484619140625,-0.46737493516504763,1.62069039953053,5.92072275840044
1740240346376505600,2.919505615234375,-0.36439796029329297,1.8190566706240177,6.306418358266353
1740240346386527500,2.929527587890625,-0.3960170873939991,1.7829688736766576,6.492994822844863
1740240346396548600,2.939548583984375,-0.015301029506325722,2.044930541846156,6.294962898272275
1740240346406569500,2.949569580078125,-0.06370411814749241,1.8154916716188192,5.847275244873762
1740240346416591600,2.959591552734375,0.4634919562518596,1.9334733233988284,5.348204610240459
1740240346426612700,2.96961279296875,1.0575672717034816,2.4289824661582706,5.442693158230186
1740240346436634600,2.979634521484375,0.9566776244997978,2.5617864240169523,5.856943236929178
1740240346446655500,2.989655517578125,0.48230946944653985,2.095767579635978,5.502558721128106
1740240346456676600,2.999676513671875,0.5070370834678412,2.5525112306714055,5.133341962376236
1740240346466698800,3.00969873046875,0.3562228371441364,2.7494261339128014,4.481232683368027
1740240346476719600,3.0197197265625,0.3275321647107601,2.8592490291565653,3.705785486243665
1740240346486740500,3.029740478515625,0.5289174913644791,2.9781191542088985,3.109679249486327
1740240346496762600,3.0397626953125,0.7032622508794069,3.0043074884325263,2.5941870568841696
1740240346506783500,3.049783447265625,0.8091460531085729,3.0244793388456106,2.3030632993772624
1740240346516805600,3.0598056640625,0.6829559604316949,2.741164501523971,2.3653965675629673
1740240346526826500,3.069826416015625,0.8521423142701386,2.755656552734971,2.6419629535377025
1740240346536847600,3.07984765625,0.94727383633852,2.606129423612356,2.999794979444146
1740240346546869500,3.089869384765625,1.167023671722412,2.338901797738671,3.1209447398662564
1740240346556890400,3.099890380859375,1.4939116933107375,2.1454045939862727,2.846304791909456
1740240346566911500,3.109911376953125,1.872313044515252,2.182849650761485,2.3371249973244965
1740240346576933600,3.11993359375,1.7228244938373565,1.7844827853709457,1.7318170708492397
1740240346586954500,3.12995458984375,1.3735726647496223,1.6758868015736341,1.6160086714550852
1740240346596976600,3.1399765625,0.7908546096146106,1.572366221344471,1.6392831640586256
1740240346606997500,3.14999755859375,-0.17763035705685615,1.5093237819761036,1.6737293312788009
1740240346617018400,3.160018310546875,-0.6014934827536345,1.4492676649421452,1.6064358103372156
1740240346627040500,3.17004052734375,0.03382452819049358,1.7896984741926192,1.5376671022765338
1740240346637061600,3.1800615234375,-0.20315350537002086,1.770492838463187,1.8061425362542272
1740240346647082500,3.19008251953125,-0.8301444174736737,1.3129185818225144,1.926838415428996
1740240346657104400,3.2001044921875,-0.6902338424801826,1.5379074869036673,2.4749679722636935
1740240346667125500,3.21012548828125,-0.8128279564917087,1.3296815005749463,2.5664617223516104
1740240346677147600,3.220147705078125,-0.877830297756195,1.401865277776122,2.013473619569838
1740240346687168500,3.23016845703125,-0.9178478353679179,1.6987264098912476,1.2669295685857533
1740240346697189600,3.240189697265625,-0.9572948796153068,1.8110522278666494,0.7488888605445623
1740240346707211500,3.25021142578125,-1.38308868111372,2.0152093573212624,1.199985737864673
1740240346717232400,3.260232421875,-1.856208881932497,2.0824907494336364,2.268923421627283
1740240346727253500,3.27025341796875,-1.851710401469469,1.9094786998271942,3.0934274951264262
1740240346737275600,3.280275634765625,-1.4258078788995743,1.6729419802933931,3.1774130615413188
1740240346747296500,3.290296630859375,-1.436710965707898,1.6809879241049288,2.8358269447758793
1740240346757318400,3.300318359375,-1.3331991533070802,1.7153244934707879,2.1127418030515313
1740240346767339500,3.310339599609375,-0.8938882831096648,1.9635311925321817,1.4708292161479593
1740240346777360400,3.3203603515625,-0.709006347489357,2.1918530414283275,1.436601075592637
1740240346787382500,3.330382568359375,-0.6636340048462153,2.278718254932761,1.8050792909368871
1740240346797403600,3.340403564453125,-0.7559475468844175,2.250058562159538,2.1802827228829265
1740240346807424500,3.350424560546875,-1.0320336019963026,2.3101117565840483,2.2924454592511054
1740240346817446400,3.3604462890625,-1.1761539036393165,2.408742811205983,1.6971116681709884
1740240346827467500,3.370467529296875,-1.0572340942263603,2.702466814339161,0.8720666196629404
1740240346837490200,3.380490234375,-0.9731517894387245,3.0365409480392933,0.5875345155060291
1740240346847511000,3.390510986328125,-1.0642202998518944,3.0980425877064466,0.7517439577147365
1740240346857532000,3.400531982421875,-0.9414514137953519,2.8909055656582114,0.9362538451522588
1740240346867554000,3.410553955078125,-0.7411047825396061,2.7728789056926963,0.8313982169270515
1740240346877575000,3.420574951171875,-0.7054892792791128,2.7796821559667584,0.2728808293297887
1740240346887596000,3.430595947265625,-0.9481623096108436,2.7906226521760225,-0.3024769261702895
1740240346897618200,3.4406181640625,-1.1699673239588737,2.8883687406569716,-0.5831584923788905
1740240346907639000,3.45063916015625,-1.1166232717841862,2.9678637176543474,-0.9541106966212392
1740240346917661000,3.460660888671875,-0.9387491690993308,3.026453269267082,-1.6089999617367983
1740240346927682000,3.47068212890625,-0.7246727031767368,2.9301936199516057,-1.9952359520897267
1740240346937703200,3.480703125,-0.5944727903366088,2.8570576565921306,-1.7602753958314656
1740240346947725000,3.49072509765625,-0.7089514024317264,2.6302280920803547,-1.5062807610183953
1740240346957746000,3.500745849609375,-1.043649805510044,2.4326281291842458,-1.2995020508885382
1740240346967767000,3.51076708984375,-1.2908429436147213,2.3426754710584876,-1.1154477982640265
1740240346977789000,3.520788818359375,-1.6264964554607868,2.2089871315807104,-1.036186045500636
1740240346987810000,3.53081005859375,-1.976110103598237,2.180337375679612,-0.8704197292387486
1740240346997832000,3.54083203125,-2.3009382700473067,1.9531436540305613,-0.9181465260535479
1740240347007853000,3.55085302734375,-2.5182547408044336,1.8471014463692903,-1.130465919175744
1740240347017874000,3.5608740234375,-2.5559470503389834,1.8493769900858401,-1.3960937086373566
1740240347027895800,3.570895751953125,-2.546304192724824,1.7748527872383593,-1.599240784266591
1740240347037917200,3.580917236328125,-2.576007841593027,1.6905454415231942,-1.392268012869358
1740240347047938000,3.59093798828125,-2.73169290882349,1.5438912374883889,-1.1465028617411852
1740240347057960000,3.6009599609375,-2.6767875986814498,1.4452122520714998,-0.8300479713618755
1740240347067981000,3.61098095703125,-2.4550872137516735,1.2398399016082287,-0.4492430661469698
1740240347078003000,3.6210029296875,-2.2176047378003596,1.0372498753398656,-0.3010316957980394
1740240347088024000,3.631024169921875,-1.9745809943348167,1.0049147089242934,-0.14966741437613965
1740240347098045200,3.641045166015625,-1.8097230250895022,0.9283236366748809,0.15669921270906925
1740240347108067000,3.651067138671875,-1.807683043694496,0.7367039172321558,0.6877940481126308
1740240347118088000,3.661087890625,-2.049402718824148,0.5660433991879225,1.0591893199473619
1740240347128109000,3.671109130859375,-2.1711282333076,0.46655543547570705,0.9145259974688291
1740240347138131200,3.681131103515625,-2.236196041023731,0.5749895067095756,0.4095002538233995
1740240347148152000,3.691152099609375,-2.2524206151157617,0.7924678900301456,-0.18124270233511924
1740240347158174000,3.701174072265625,-2.1193547914505,0.9270978942722081,-0.4442833979129791
1740240347168195000,3.711195068359375,-1.7886422431379556,1.011540264543891,-0.48358898786306376
1740240347178216000,3.7212158203125,-1.2577800474464893,1.1095745223164557,-0.32865152412950993
1740240347188238000,3.731238037109375,-0.738881845793128,1.1241104126691817,-0.1984989575624466
1740240347198259200,3.74125927734375,-0.47571781609654423,1.129686166974902,-0.5384183101594447
1740240347208281000,3.751281005859375,-0.24085867438614367,1.2383002709507942,-1.238285657903552
1740240347218302000,3.761302001953125,-0.1350070208609104,1.301694007974863,-1.8479647852003573
1740240347228323000,3.771322998046875,-0.13283026134371756,1.393823425617814,-2.3529320766568182
1740240347238345200,3.78134521484375,-0.3451344568967819,1.4984101737737654,-2.7229040376901623
1740240347248366000,3.791365966796875,-0.46025838115811346,1.555318055909872,-3.0376521241515873
1740240347258387200,3.80138720703125,-0.3475216442942619,1.5260592281997203,-3.1060552137702704
1740240347268409000,3.8114091796875,-0.19364742587804792,1.392719263768196,-3.27201296095103
1740240347278430000,3.821429931640625,-0.18629472502768038,1.355419168421626,-3.51461292604655
1740240347288451000,3.831451171875,-0.21272680487930773,1.4214151968985795,-3.414079837195575
1740240347298473200,3.84147314453125,-0.3117594260394573,1.2465221558511257,-3.2608819106057285
1740240347308494000,3.851494140625,-0.33453882860243317,1.0904852064430712,-3.134745009420812
1740240347318516000,3.861515869140625,-0.3120914344727993,0.923239465278387,-3.0878280676841734
1740240347328537000,3.871537109375,-0.27632687813043594,0.7542302215725183,-3.0566487933054565
1740240347338558000,3.881557861328125,-0.19688100097179412,0.43539223544895644,-2.915595478017628
1740240347348580000,3.891580078125,-0.14871347465217113,0.30129589969217774,-2.516029465970397
1740240347358601200,3.901601318359375,0.19193945291638373,0.1300619656741619,-2.38709562754333
1740240347368622000,3.9116220703125,0.2537280928313732,0.02347615265548229,-2.459987260752916
1740240347378644000,3.92164404296875,-0.07748305265307426,0.06658288845419884,-1.951801591771841
1740240347388665000,3.9316650390625,-0.45218204220831393,-0.027844284737110137,-1.0485434227705002
1740240347398687200,3.941687255859375,-1.0533137059122324,-0.26957623482644555,-0.8347548338785767
1740240347408708000,3.9517080078125,-1.8979320544183254,-0.046644846796989436,-0.965515595471859
1740240347418729000,3.96172900390625,-2.546917940708995,0.1136181958734989,-1.3513964887768029
1740240347428751000,3.971751220703125,-2.77285377125144,0.24332652580440042,-2.1535294482529164
1740240347438772000,3.98177197265625,-2.558014504262805,0.5185024803340434,-2.3552251560300586
1740240347448794000,3.991794189453125,-1.8256629370212554,0.46982525092661376,-1.8782932879686354
1740240347458815000,4.00181494140625,-1.3580945251107215,0.305489844250679,-1.7430378453046083
1740240347468836000,4.011836181640625,-0.855446616512537,0.2966682398915291,-1.9547166024357079
1740240347478858000,4.02185791015625,-0.31846272307038304,0.3952197995364666,-1.9755097996175288
1740240347488878800,4.03187890625,-0.4992044901460409,0.20489304251372814,-2.2964874281182883
1740240347498900000,4.04189990234375,-0.6935194400221109,0.11993746202290058,-2.827895567254722
1740240347508922000,4.051922119140625,-0.6931389162719249,0.24611352617442606,-3.312361045691371
1740240347518943000,4.06194287109375,-0.5454349109232426,0.5224070865571498,-2.6674682739332316
1740240347528965000,4.071965087890625,-0.4950649061232805,0.6603291180819273,-1.8460149663068353
1740240347538986000,4.081986083984375,-0.8608908533930778,0.31988661839365956,-2.4944413190186023
1740240347549006800,4.0920068359375,-0.9389508291512727,0.12315700859129428,-3.8422266315609215
1740240347559029000,4.102029052734375,-0.07401625332534313,0.6415636273354292,-3.9810745457589625
1740240347569050000,4.112050048828125,0.12766893305778504,0.9862813201248645,-3.418973162195086
1740240347579071000,4.122071044921875,0.22546178328990935,1.033366311904788,-4.133234945994615
1740240347589092900,4.1320927734375,0.9263912073075771,0.6936866132825613,-4.940227620461583
1740240347599114000,4.142114013671875,0.6494400597989559,-0.17334698064923285,-4.4002293476343155
1740240347609136000,4.15213623046875,1.1001415080606938,0.21492110005319118,-3.3081647630453106
1740240347619157000,4.162156982421875,2.1580290977597234,-0.2688818228214979,-2.3104703607633708
1740240347629178000,4.17217822265625,1.9783955841869114,-0.6290443375021219,-1.8863722572669386
1740240347639200000,4.182199951171875,1.5253262377500534,-0.41169513351917264,-1.7482225544661283
1740240347649220900,4.192220947265625,0.7254243983268738,-0.5079851779729128,-1.7302695491462945
1740240347659242200,4.2022421875,-0.38246377833783624,-0.6415069287121296,-2.3849109769806263
1740240347669264100,4.21226416015625,-0.9463976380258798,-0.40860418176651,-2.5188009765103456
1740240347679285000,4.222284912109375,-1.1211731901735067,-0.18874854792058468,-1.9779159839764235
1740240347689307000,4.232306884765625,-1.8574089053720235,-0.35907413492202755,-1.8801770558886228
1740240347699328000,4.242327880859375,-2.3108868326097727,-0.46318683582544323,-2.389426993100345
1740240347709349000,4.25234912109375,-2.3446271896481514,-0.22897885150015354,-3.6079034964233636
1740240347719371000,4.26237109375,-2.114665172329545,0.1354214468806982,-4.455004893916845
1740240347729392000,4.27239208984375,-1.6907465170532463,0.34915713654160496,-3.870852129803598
1740240347739413000,4.2824130859375,-1.5071943687319755,0.0342898076146841,-3.64002589687109
1740240347749435000,4.292434814453125,-1.9504571914255617,0.1182850186407566,-3.856701439376175
1740240347759456000,4.3024560546875,-2.424859833270311,0.6217652864098548,-3.8579374109119176
1740240347769478100,4.31247802734375,-2.6913036152899266,0.7683809119999409,-3.806623110999167
1740240347779499000,4.3224990234375,-2.7160774065405127,0.6684615711331368,-3.7374043210834262
1740240347789520100,4.33252001953125,-2.568558694630861,0.7019272028833627,-3.833844295401871
1740240347799542000,4.3425419921875,-2.8121260434538122,0.8197463575780392,-3.8845676436841488
1740240347809563000,4.35256298828125,-3.4164345836281775,1.0283084439933299,-3.6522146395757793
1740240347819584300,4.362584228515625,-3.9572377430975436,1.1096090091079474,-3.8847932691335676
1740240347829606100,4.372606201171875,-4.013955071097612,1.3021499350488186,-3.822182499180734
1740240347839627000,4.382626953125,-3.6342888145238157,1.3518991776019333,-3.2911300416141747
1740240347849649000,4.39264892578125,-3.1363352012217045,1.3157353928089142,-3.2971485712513324
1740240347859670000,4.402669921875,-2.7851363297194243,1.3690835366368292,-3.5383304862424727
1740240347869691000,4.41269091796875,-2.3223475533008573,1.5508353575378655,-3.6892031847551463
1740240347879712800,4.422712646484375,-2.174272376552224,1.4914274752795695,-3.7461736107334493
1740240347889734100,4.432734130859375,-2.181864731377363,1.4941490091979504,-3.867841549810767
1740240347899755000,4.442755126953125,-2.174475790169835,1.8928981519043444,-3.86652988269031
1740240347909777000,4.45277685546875,-2.178952058801055,1.9580840330421923,-3.0834844855219123
1740240347919798000,4.462798095703125,-1.8141516551867127,1.993139564332366,-2.4853034883171317
1740240347929820000,4.47281982421875,-1.478994402424991,1.8236562733739614,-2.582926827201247
1740240347939840800,4.4828408203125,-0.8775465123787521,1.8307108680605888,-2.873518962049484
1740240347949862000,4.49286181640625,-0.13709756339937448,2.0937632540762423,-3.432209075865149
1740240347959884000,4.502884033203125,0.4022723483964801,2.2308523419082165,-3.7784856885343787
1740240347969905000,4.51290478515625,0.6860416514873504,2.503887777277827,-3.703949795249104
1740240347979926800,4.5229267578125,0.4488093509048223,2.6461463767021893,-3.8112060548752544
1740240347989948000,4.532947998046875,0.4024655328810215,2.825691042947769,-3.497950837320089
1740240347999969000,4.542968994140625,0.510075428250432,2.768808295252919,-2.9753327383607626
1740240348009991000,4.552990966796875,0.4015758905649185,2.754377034318447,-2.0471470488518477
1740240348020011800,4.56301171875,0.23694763842225072,2.726194895929098,-0.8875409599095583
1740240348030033000,4.573032958984375,0.19906302118599414,2.5813871965438127,-0.6548784514605999
1740240348040054800,4.5830546875,0.5284954665601254,2.5216473058521744,-0.6005681846022606
1740240348050076000,4.593075927734375,1.059653430327773,2.391048164561391,0.04910802204012871
1740240348060098000,4.60309814453125,1.4230904366344213,2.2790064242243764,0.32904256927371023
1740240348070119000,4.613118896484375,1.3998524766489862,2.1048574795424937,0.12524433625936507
1740240348080139800,4.623139892578125,1.3628919885203241,1.6890560797482728,0.37349721255004403
1740240348090162000,4.633161865234375,1.1674556333988904,1.648877506355941,1.0136562337845563
1740240348100183000,4.64318310546875,0.6418535501927137,1.5688275258243083,1.8799796336203813
1740240348110204000,4.653203857421875,0.27059622552394863,1.2891326325654984,2.7352076389461755
1740240348120225800,4.663225830078125,0.21775486217439174,0.9612716742917895,3.2756220913589
1740240348130247000,4.673246826171875,0.12893500747084616,0.7325491356402635,3.461000286063552
1740240348140268800,4.683268798828125,-0.07704816836714744,0.8149211293786763,3.3918606988638635
1740240348150290000,4.6932900390625,-0.6041480889156461,1.0503557328894735,3.4455326678186653
1740240348160311000,4.70331103515625,-1.11054570543617,1.1370122720792888,3.64901467449069
1740240348170333000,4.7133330078125,-1.2729890147551894,1.0697194817900657,3.624736557802558
1740240348180353800,4.723353759765625,-0.9303215324938297,1.0260250092312693,3.484412725833058
1740240348190375000,4.733375,-0.26461247493922707,1.204652268370986,3.715360247057676
1740240348200397000,4.74339697265625,-0.03513035009205341,1.394492703181505,4.039766973224282
1740240348210418000,4.75341796875,-0.6955500690668821,1.3368220199793577,4.284867522963881
1740240348220439800,4.763439697265625,-1.8611054218024015,1.4057131853759288,4.547859118703007
1740240348230461000,4.7734609375,-2.5959774474322797,1.6513690309107303,4.87607575854659
1740240348240481800,4.783481689453125,-2.6984984952300786,1.702520833738148,5.394052169179916
1740240348250504000,4.79350390625,-2.5158318975716827,1.7116656787022948,5.613805511695146
1740240348260525000,4.803525146484375,-2.4775258400529623,1.8698229812651872,5.402125585520267
1740240348270546000,4.8135458984375,-2.4097534495532513,1.91339353518337,4.984186589175462
1740240348280567800,4.82356787109375,-2.2296435506403447,1.9433280701979994,4.716587207379937
1740240348290589000,4.8335888671875,-1.8940712873369454,1.8822157221093774,4.5526825933367014
1740240348300611000,4.843611083984375,-1.2155939336240291,1.699666028828919,4.5801656435459845
1740240348310632000,4.8536318359375,-0.4272743954449892,1.529534210833907,4.6097103024601935
1740240348320653000,4.863653076171875,0.06647299833893776,1.3163488485321402,4.364806152075529
1740240348330675000,4.873675048828125,0.3871931449472904,1.0271212800353764,4.113468753772974
1740240348340695800,4.88369580078125,0.6725169840037822,1.0626558270141482,3.978255396685004
1740240348350717000,4.893717041015625,0.5484364308267832,1.0857362583503127,3.867091608226299
1740240348360739000,4.903739013671875,0.043240006789565084,0.8666367035686969,3.7424078284591435
1740240348370760000,4.913760009765625,-0.1832739159017801,0.8015083978369831,3.794177178663015
1740240348380781800,4.92378173828125,0.0000339022696018219,0.7207669279098511,3.7910353735059497
1740240348390803000,4.933802978515625,0.8093126418471336,0.629857407450676,3.7103649229884144
1740240348400823800,4.94382373046875,1.6785791093975304,0.5725508813858032,3.487943238046765
1740240348410846000,4.953845947265625,1.6000287197738885,0.712117172986269,2.7567539925828575
1740240348420867000,4.9638671875,1.2640408614069223,0.987283775165677,2.386763619109988
1740240348430889000,4.973888916015625,1.2556184854984282,0.9436959778517484,2.176456442593038
1740240348440909800,4.983909912109375,0.4437947376132011,0.793701815739274,1.8182687351167202
1740240348450931000,4.993930908203125,0.5312269373506308,0.7947603848814964,1.887206954525411
1740240348460953000,5.003953125,1.4682207872152329,0.7674334020167589,2.096447670854628
1740240348470974000,5.013973876953125,2.3168916259825227,0.623120792672038,2.073686972992122
1740240348480994800,5.023994873046875,2.6232863101184365,0.6537403873413801,1.4068740458488465
1740240348491017000,5.034016845703125,2.5394582723528147,0.8033931886702775,0.8298191310420632
1740240348501037800,5.044037841796875,2.427670799037814,0.87964874535501,0.8522586341261863
1740240348511060000,5.05406005859375,2.6287153494298456,0.5016653273016214,1.274990709966421
1740240348521081000,5.0640810546875,3.7767467359125613,0.41359833679199215,1.8777955675795672
1740240348531102000,5.07410205078125,5.363325022482872,0.271360195633769,2.040771376340091
1740240348541123800,5.084123779296875,5.550702282050252,0.8821370550394058,1.7624296512559054
1740240348551145000,5.09414501953125,5.721417160630226,1.887316844640672,1.480214007347822
1740240348561167000,5.1041669921875,5.38345186471045,2.108328078262508,0.48895957498550413
1740240348571188000,5.11418798828125,3.964567647594213,1.1877025948747992,-1.1787833753600716
1740240348581208800,5.124208740234375,3.9323733509540557,1.0366533707514405,-1.3231944766432047
1740240348591231000,5.13423095703125,3.052019087678194,1.032433707229793,-0.9815155670277774
1740240348601251800,5.144251953125,2.1551304537087677,1.0798530455306172,-0.8535141871452331
1740240348611272700,5.154272705078125,1.846298313292861,0.9854363937333226,-0.7289411742761731
1740240348621294800,5.164294921875,2.1912807944983244,0.9693711018562317,-0.5954208848416805
1740240348631316000,5.17431591796875,3.277294993007183,1.1321952271863818,-0.018263532573729754
1740240348641337900,5.184337890625,4.826406010970473,1.3297414140686392,0.26154841119349004
1740240348651358700,5.194358642578125,5.3704737251937384,1.1516960464701056,-0.2814281467922032
1740240348661379800,5.2043798828125,5.576696555006504,0.899822349333763,-0.4898046475075185
1740240348671402000,5.214402099609375,6.204378371983767,1.0288403589129447,-0.6060078914381564
1740240348681422800,5.2244228515625,6.181433549726009,1.1568594205826521,-1.1378876666743307
1740240348691445000,5.234445068359375,5.676140095055103,1.3768416034176945,-1.8262329919941722
1740240348701465900,5.2444658203125,4.704792724689841,1.3219510524533689,-2.24541161313653
1740240348711486700,5.25448681640625,3.719271867543459,0.9092005646623671,-2.4345292866304513
1740240348721508900,5.2645087890625,3.4518379054427144,0.6495251077339053,-2.2937017429225146
1740240348731530000,5.274530029296875,3.5194892999112604,0.5265925555482507,-1.8987420556269585
1740240348741550800,5.28455078125,3.547850886520743,0.45821065484806894,-1.053832761350274
1740240348751572700,5.29457275390625,4.297802992382645,0.29018589213490487,-0.309290697838366
1740240348761593900,5.30459375,5.322849219709634,0.30976167635098095,0.2526024498023093
1740240348771616000,5.314615966796875,5.273735936972499,-0.05720014308094978,0.5459835577819496
1740240348781636900,5.324636962890625,4.816935002791881,-0.023105419646948573,0.514198937921226
1740240348791658000,5.334657958984375,4.642815868726372,0.1910102823074907,0.18234138429202137
1740240348801680000,5.344679931640625,4.451735662987828,0.24410087117776275,-0.08302227434068918
1740240348811700700,5.35470068359375,4.178239039847255,0.19858095502378417,-0.13402166308537125
1740240348821723000,5.364722900390625,3.656397185957432,0.32773828174211084,-0.3948823112104088
1740240348831744000,5.374743896484375,3.262918677130341,0.3929527313873172,-0.5593996503245086
1740240348841764400,5.384764404296875,3.1026077036648987,0.6007665567185729,-0.07048552191592752
1740240348851786500,5.394786376953125,3.6709038502156734,0.7835732204347848,0.5900308623664081
1740240348861807600,5.4048076171875,3.939211088019609,0.5737222632527351,0.7911482587989419
1740240348871828500,5.414828369140625,3.873135564565658,0.3779730427898466,1.0338483232680709
1740240348881850400,5.424850341796875,3.6360353659301996,0.21563772388994693,1.2247666895084082
1740240348891871500,5.43487158203125,3.5113153458058832,-0.006246200913190841,1.396997671739757
1740240348901893600,5.4448935546875,3.865461376675963,-0.08621449451074004,1.5342768753163516
1740240348911914500,5.45491455078125,3.8308728783756494,-0.25089915301576254,1.6177810879550873
1740240348921935600,5.464935546875,4.006900476410984,0.02828676780760288,1.738039452495426
1740240348931957500,5.47495751953125,4.0948634220242495,0.43029228196144104,1.5013386284410952
1740240348941978400,5.484978271484375,3.9469197627007957,0.7654729155987501,1.1191622887425123
1740240348952000500,5.49500048828125,3.6300060226380824,1.0287748924612998,0.6169220841623843
1740240348962021600,5.505021728515625,3.9630233407616613,1.054319668084383,-0.03641067222617567
1740240348972042500,5.51504248046875,4.265741966733336,0.8374033025607466,-0.5225436454836279
1740240348982064400,5.525064453125,4.6097880438715215,0.5919616842985153,-0.3935511356718838
1740240348992085500,5.53508544921875,4.602411377623677,0.5510027741834521,-0.11125928472243249
1740240349002106400,5.5451064453125,4.38703435049653,0.25682079814970493,0.005972279342636466
1740240349012128500,5.55512841796875,4.004811395177245,0.30719138747155667,0.11380801935717463
1740240349022149600,5.565149658203125,3.6702573690056797,0.47832858311682935,0.267320564854145
1740240349032171500,5.575171630859375,3.596262742990255,0.36393034278154374,0.3888702843792736
1740240349042192400,5.5851923828125,4.018076534941792,0.6683224549233913,0.6823293529659509
1740240349052213500,5.595213623046875,3.9333319668531415,0.9549766658008098,0.9449972697086632
1740240349062235600,5.605235595703125,3.3044986417531965,1.2644774992585182,0.8922690113447606
1740240349072256500,5.615256591796875,2.556305946779251,1.8071867846101521,0.8773116076443344
1740240349082278400,5.6252783203125,1.7822049035668373,2.8400176744639873,0.9552384585421532
1740240349092299500,5.635299560546875,0.8114671895325183,2.933242486128211,0.8369190261751412
1740240349102320400,5.6453203125,-0.2404436638444662,2.9865058742821216,0.8281153958640992
1740240349112342500,5.655342529296875,-0.7987474086910485,3.1590006220161913,0.8148619465373456
1740240349122363600,5.66536376953125,-0.8850064729958772,3.124869804355502,0.6295229147993028
1740240349132385500,5.675385498046875,-0.8915636395543813,3.714766957339644,0.4759538168095052
1740240349142406400,5.685406494140625,-0.4450204800158739,4.126588347586989,0.29227731145620345
1740240349152427500,5.695427490234375,-0.6991969011366367,3.943600262889266,-0.09644245853647589
1740240349162449700,5.70544970703125,-1.214334873473644,4.158685613593459,0.09148717421665788
1740240349172470500,5.715470458984375,-1.6573101113975046,4.210125877973437,0.2169035060420632
1740240349182492400,5.725492431640625,-2.5408809986323115,4.5474844401717185,0.23571225140839813
1740240349192513500,5.735513427734375,-3.3749826292991636,4.766961303833127,0.1439822083465755
1740240349202534400,5.745534423828125,-3.776113114184141,4.780081482169032,0.09383855964839458
1740240349212556500,5.755556640625,-3.9408910039305685,4.943351889961957,0.13990838303640485
1740240349222577700,5.76557763671875,-4.409176624199747,4.755692306321859,-0.34669410742893814
1740240349232598500,5.7755986328125,-5.317275218969583,4.823050855323672,-0.9406225617557763
1740240349242620400,5.785620361328125,-6.314467224687338,4.579538451558351,-1.268877487783134
1740240349252641500,5.7956416015625,-7.066100415503978,4.012948524403572,-1.386361419174075
1740240349262663700,5.80566357421875,-7.602884986981749,3.617942075356841,-1.2094424252569675
1740240349272684500,5.8156845703125,-7.760040126764774,3.4939643980324266,-1.0531997241437434
1740240349282705700,5.82570556640625,-7.383928932324052,3.3770553439199924,-1.0168205430343746
1740240349292727600,5.8357275390625,-6.505202562510967,3.410478890094161,-1.0021952208325267
1740240349302748400,5.84574853515625,-5.752804817062616,3.9107945563524957,-1.1121899655118583
1740240349312770600,5.8557705078125,-5.892605501940846,4.082251777732372,-1.5652850309118627
1740240349322791700,5.865791748046875,-6.769713915163278,3.684606796875596,-2.0314356849789617
1740240349332812500,5.8758125,-7.591383349758386,3.206556738439202,-2.3281033403486013
1740240349342834400,5.88583447265625,-8.020548088994621,3.0435318298399445,-2.468499360771477
1740240349352855600,5.89585546875,-8.32577840552628,2.785220500871539,-2.618632346832752
1740240349362877700,5.905877685546875,-8.08825033686757,2.8149773412317036,-2.483690500162542
1740240349372898600,5.915898681640625,-7.697024575403332,3.024571693304181,-1.9672768088012933
1740240349382919400,5.92591943359375,-7.551862071231007,2.7803064253449437,-1.5979767556801436
1740240349392941600,5.935941650390625,-7.635677249515056,2.6586668355792757,-1.3145426758930085
1740240349402962400,5.94596240234375,-7.96415517064333,2.6380641925334927,-0.990538393047452
1740240349412984600,5.955984619140625,-8.711820626872777,2.9560750801831484,-0.6963952877193689
1740240349423005700,5.966005615234375,-9.263824394792318,3.8463668001055713,-0.4150464897736907
1740240349433026600,5.976026611328125,-8.784512938117981,4.470346255433559,-0.3896633344531059
1740240349443048400,5.98604833984375,-8.370898819234966,4.6151147918522355,-0.430448933827877
1740240349453069600,5.996069580078125,-8.490189215525984,4.618864499774575,-0.38709567592218513
1740240349463091700,6.006091796875,-7.920836253398656,4.993316821092367,-0.12316022346168756
1740240349473112600,6.016112548828125,-7.629000255969166,5.646647458589077,0.08607362473532557
1740240349483133400,6.026133544921875,-7.612834134066104,5.9420683287680145,0.23433497170582412
1740240349493155600,6.036155517578125,-7.161541734173894,6.0487763068616385,0.4986557702220976
1740240349503176400,6.046176513671875,-6.743956373572349,6.026700084131956,0.6412316189020871
1740240349513198600,6.056198486328125,-5.757044938850402,6.108905489131808,0.7639109269790351
1740240349523219700,6.0662197265625,-4.297770259156823,5.762214450442791,1.0200481267787516
1740240349533240600,6.076240478515625,-3.3230566272288558,5.435472559326887,1.5465115029893814
1740240349543262500,6.086262451171875,-2.939247279500961,4.923140292060375,1.8690769852034745
1740240349553283300,6.096283447265625,-3.4515450599759814,4.216049422803521,1.7549422181099652
1740240349563304400,6.106304443359375,-4.496471461293101,3.7298961374104023,1.736522179800272
1740240349573326600,6.11632666015625,-4.9503947942107915,3.80146996601969,1.6555793420821427
1740240349583347500,6.126347412109375,-4.842240124440193,3.9594460667967795,1.5221752263732253
1740240349593369600,6.13636962890625,-4.440763602596521,4.00009225770086,1.6288856886848806
1740240349603390500,6.146390380859375,-3.858421395036578,3.8210026417464014,1.7499692520029841
1740240349613411300,6.156411376953125,-3.1079139933794737,3.2777617337360976,1.929932289791107
1740240349623433500,6.16643359375,-2.3246885634690524,2.925595770767331,2.3503157566785813
1740240349633454600,6.17645458984375,-1.9546727632939815,2.4584242492198944,2.502136257435381
1740240349643476500,6.1864765625,-2.8944758253604173,2.134645007301867,2.4364659537814557
1740240349653497300,6.196497314453125,-3.665149232211709,2.356268527603149,2.2647075574979185
1740240349663518500,6.2065185546875,-3.495314059075713,2.8275851861312984,1.8793430892825125
1740240349673540600,6.21654052734375,-2.756753115800023,3.085564506666362,1.4933096357643603
1740240349683561500,6.2265615234375,-1.7641735723137855,2.8440722105517984,0.7922720021318643
1740240349693583600,6.23658349609375,-1.2303992885679005,2.5206574180319903,0.06287521130898967
1740240349703604500,6.2466044921875,-1.4361077391177415,2.775009487980604,-0.18603169017732143
1740240349713625300,6.256625244140625,-2.0409698215216396,3.18766849809587,0.06591052388427779
1740240349723647500,6.2666474609375,-2.7558172962546346,3.3388875258281825,0.1340873943984974
1740240349733668600,6.276668701171875,-3.2245623507291077,3.5309909371346233,0.10259854261395521
1740240349743690500,6.2866904296875,-2.946502365195751,3.6265333780914544,0.24343890013769268
1740240349753711400,6.29671142578125,-2.088192760467529,3.789386437255144,0.33472766570542006
1740240349763732500,6.306732421875,-1.169226150202751,3.5550603795081375,0.20603359085097908
1740240349773754600,6.316754638671875,-0.3732254098713398,3.366026000383496,0.341899931954965
1740240349783775500,6.326775390625,0.03526537464857101,3.242184516659379,0.6360657605715095
1740240349793797400,6.33679736328125,0.4153390429794788,2.8227076432228086,0.7782947685752064
1740240349803818500,6.346818603515625,0.47739890105128285,2.6537083363890646,0.8353107141956686
1740240349813839400,6.35683935546875,0.4770885199278593,2.6740444374531505,0.759181560369581
1740240349823861500,6.366861572265625,0.6477513760596514,2.664606162500381,0.5823133467916399
1740240349833883400,6.37688330078125,0.8404664895236492,2.8962679694741964,0.7352781222127378
1740240349843905300,6.3869052734375,0.2909773347735405,3.0295792923331257,0.7060936749130488
1740240349853926100,6.396926025390625,-0.2595171976268291,2.8741970074415204,0.3601121727328747
1740240349863947300,6.406947265625,-0.35151509784460067,3.0338977400541305,0.2533799004482105
1740240349873969400,6.416969482421875,-0.024335984355211258,3.22761647760272,0.17336451630592345
1740240349883990300,6.426990234375,0.6482049650460481,3.133614836347103,0.2374718084268272
1740240349894012200,6.43701220703125,1.5904571738302706,2.9217227287262677,0.2926064703453332
1740240349904033300,6.447033203125,2.3889158287078143,2.6421733814179897,0.14115180722624063
1740240349914054400,6.457054443359375,2.3866391159474847,2.354954522395134,-0.11720153425298631
1740240349924076300,6.467076171875,1.7762591469049454,2.268841004040837,-0.2429578386224806
1740240349934097400,6.477097412109375,1.3501023573130368,2.4768559779673813,-0.2142064489778131
1740240349944119300,6.487119384765625,1.1778104386746884,2.6590187177568674,-0.15985102780349553
1740240349954140200,6.49714013671875,1.4891881719201803,2.587002113816142,-0.009064254008606075
1740240349964161300,6.507161376953125,1.9320447519004345,2.5352210731744766,0.22038338404707608
1740240349974183400,6.517183349609375,2.0896774460673333,2.5221003103166817,0.39529527592547237
1740240349984204300,6.527204345703125,1.9497838222086428,2.402784195062518,0.40627427751421924
1740240349994226200,6.53722607421875,1.907731563898921,2.4028297877699134,0.23021496916636824
1740240350004247300,6.547247314453125,2.0791735877096653,2.4495494533687827,0.13975048906095325
1740240350014268400,6.557268310546875,2.170738357207179,2.540350837278366,0.2238607778340578
1740240350024290300,6.567290283203125,2.4600574033796785,2.505365448614955,0.3513120495531708
1740240350034311200,6.577311279296875,2.9382711279451845,2.381658989447355,0.3763877098271623
1740240350044333300,6.587333251953125,3.2446801328673955,2.2318103732854127,0.23738727194853126
1740240350054354200,6.597354248046875,3.531629235038161,2.2567723805844784,0.13403244020771235
1740240350064375300,6.607375244140625,3.5584225494176147,2.2233774759829044,0.05836871193628758
1740240350074397400,6.6173974609375,3.2622716113984582,2.115107070878148,0.027326544473320245
1740240350084418300,6.627418212890625,3.327603623008728,2.113710648083687,0.18110300160348414
1740240350094440200,6.637440185546875,3.8113773197889325,2.0219529863625763,0.3764806488076225
1740240350104461300,6.64746142578125,4.046591558547318,2.0945307313174006,0.6861058758299797
1740240350114482400,6.657482421875,4.402887460927665,1.952821582469344,0.7469790083352476
1740240350124504300,6.66750439453125,4.867049279265105,1.9187468789100646,0.7475714943356812
1740240350134525200,6.677525146484375,5.24890895422995,2.0593577111274004,0.9121107530206441
1740240350144547300,6.68754736328125,5.962209199520945,1.8553566490173339,0.924632015615329
1740240350154568200,6.697568115234375,6.622406215655803,2.0549135912001133,0.7791793693900108
1740240350164589300,6.70758935546875,6.752063692182302,2.130636648443341,0.5280048334989697
1740240350174611500,6.717611572265625,6.138167239451408,1.926100164282322,0.11750104692252353
1740240350184632300,6.72763232421875,5.463604428833722,1.9363363116145134,-0.10775275617251172
1740240350194654200,6.737654296875,5.254593429607152,2.1056717185348273,0.26902629105979575
1740240350204675000,6.747675048828125,5.528482266935706,2.3285873244732618,0.6360802274882793
1740240350214696200,6.7576962890625,6.174100138098001,2.593969614741206,0.7406994166091084
1740240350224718300,6.76771826171875,6.536615937906503,2.812399599698186,0.7740081772971897
1740240350234739200,6.7777392578125,6.540498332297801,2.9393565850943326,0.5020657247960567
1740240350244761300,6.78776123046875,5.880548568922281,2.979018733397126,0.2778420684663579
1740240350254782200,6.7977822265625,5.2401194985747335,3.1366052503347395,0.33701230604387816
1740240350264803000,6.807802978515625,4.90116109996438,3.2623563670724627,0.2677930046714842
1740240350274825200,6.8178251953125,4.335983377695084,3.5094250020146367,0.1198526332836598
1740240350284846300,6.827846435546875,4.030626804435253,3.519611464986205,0.008228753032535315
1740240350294868200,6.8378681640625,3.9894554206132886,3.5140748736470937,-0.1311893622688949
1740240350304889000,6.84788916015625,3.9190959362298248,3.307000979962945,-0.3103862379901111
1740240350314910200,6.85791015625,3.7979099354505537,3.170553112643957,-0.09687675830051302
1740240350324932400,6.867932373046875,3.8362972415119407,3.0686218474328517,0.3692476653467864
1740240350334953200,6.877953125,4.282316669437289,3.0356092201471325,0.7114408080946654
1740240350344975400,6.887975341796875,4.577711236131191,3.0593729575723407,0.8579991505395621
1740240350354996200,6.897996337890625,4.45079867439866,3.1335446937203404,0.8735764397040009
1740240350365017000,6.90801708984375,4.161174507799744,3.2282354862838982,0.774329518206045
1740240350375039200,6.918039306640625,4.031517615795135,3.2763638496369123,0.6389040527373552
1740240350385060400,6.928060302734375,3.8470793322890993,3.461055231121182,0.5618953395977616
1740240350395082200,6.938082275390625,3.57029243543148,3.661096741950512,0.5170679905515164
1740240350405103000,6.94810302734375,3.840705705603957,3.7764234953075646,0.47910088266357775
1740240350415124200,6.958124267578125,4.285477763816714,3.6701924870759246,0.3253003140054643
1740240350425146400,6.968146484375,4.509478242382407,3.4603739708587526,0.11274243595227598
1740240350435167200,6.978167236328125,4.645457907667756,3.3406334927126764,-0.09149601511023939
1740240350445189000,6.988189208984375,4.339847067385912,3.345117944650352,-0.27676968999449164
1740240350455210200,6.998210205078125,3.875619198074937,3.449807860919833,-0.1645515336446464
1740240350465231000,7.008231201171875,3.685906189036369,3.565561022995412,0.1447492471963167
1740240350475253200,7.018253173828125,3.78126275203228,3.5682743736073372,0.3547807485770434
1740240350485274400,7.0282744140625,3.646561436119675,3.5930636546880006,0.8383106266640126
1740240350495296300,7.038296142578125,3.7569945722162723,3.6530575201407074,1.4136613679014145
1740240350505317000,7.048317138671875,3.8985581751137968,3.7515351377665995,1.6621676344312726
1740240350515338200,7.058338134765625,4.056948994171619,3.785152745208144,1.5394894953981042
1740240350525360400,7.0683603515625,4.374550716498494,3.792055656464398,1.2292138781756161
1740240350535381200,7.07838134765625,4.436859580895304,3.7694244302004574,0.7720084548473358
1740240350545403100,7.088403076171875,4.483049669662118,3.757090726067126,0.4771997982826084
1740240350555424300,7.09842431640625,4.4003146878302095,3.818414963340759,0.549128833537735
1740240350565445000,7.108445068359375,3.4515526587605474,3.8291570143684743,0.6328929026890546
1740240350575467300,7.11846728515625,2.414278233501315,3.7440544266223905,0.7110116959623992
1740240350585488400,7.12848828125,1.7488175977498293,3.5629569779768584,0.8329881895322352
1740240350595510300,7.13851025390625,0.878272196304798,3.402009752434492,1.0918468501850962
1740240350605531100,7.14853125,0.17432780838012693,3.259342279948294,1.348658295984566
1740240350615552300,7.15855224609375,-0.5982312660872936,3.0541087534338236,1.5567406360588967
1740240350625574400,7.168574462890625,-2.578568047469854,3.036965895453095,1.757257217054069
1740240350635595300,7.17859521484375,-4.512880159780383,2.7442975388526913,1.5421896942675113
1740240350645617200,7.1886171875,-6.120926181793212,2.133756826290488,0.842423176549375
1740240350655638300,7.19863818359375,-7.298564771032333,1.2119212364606557,-0.17796751658935098
1740240350665660400,7.208660400390625,-8.09226191059649,0.18106968385577202,-1.2117314860422164
1740240350675681300,7.218681396484375,-8.671575125724077,-0.8123999403379857,-2.0722500720568
1740240350685702400,7.228702392578125,-9.09251739553809,-1.514166838093102,-2.407202303765714
1740240350695724300,7.238724365234375,-9.76123615630269,-2.1238824980080127,-2.5696605183929204
1740240350705745200,7.2487451171875,-10.819352878582476,-2.686929053467512,-2.636168880306184
1740240350715767300,7.258767333984375,-11.81731411510706,-2.9497967305660246,-2.6761238740757105
1740240350725788400,7.268788330078125,-12.620677493160962,-3.2820185143977403,-2.765876625715196
1740240350735809300,7.278809326171875,-12.840889100837707,-3.6552588295772668,-2.5793320175796746
1740240350745831200,7.2888310546875,-12.718766111469268,-3.8444890235349534,-2.1777228092670438
1740240350755852300,7.298852294921875,-12.543036619597673,-4.054328582540154,-1.7898669626273214
1740240350765874400,7.30887451171875,-11.947518704122304,-4.2162206877171995,-1.372746296928078
1740240350775895300,7.318895263671875,-11.231950513899326,-4.161745293425024,-0.720404085946828
1740240350785916400,7.32891650390625,-10.693769519627093,-4.049702676305174,-0.05156593658626079
1740240350795938300,7.338938232421875,-10.281223322236537,-3.7756948887720703,0.5254887955574319
1740240350805959200,7.348959228515625,-9.837236861443518,-3.3629911627322433,0.9335736661575734
1740240350815981300,7.358981201171875,-9.215755652672051,-2.9707497944846746,1.047702588032186
1740240350826002400,7.36900244140625,-8.183736663722991,-2.6215584634125233,1.0265871731586753
1740240350836023300,7.379023193359375,-7.005444579011201,-2.228350295959413,1.0910130297094582
1740240350846045400,7.38904541015625,-5.979411678734421,-1.8630150548160076,0.9856155496925115
1740240350856066600,7.399066650390625,-5.067628257972002,-1.4276011920571325,0.7272067516990005
1740240350866088400,7.40908837890625,-4.17707291867733,-0.9310724969916045,0.42067806591987605
1740240350876109300,7.419109375,-3.195585262569785,-0.544113233865425,0.16701726617105303
1740240350886130400,7.42913037109375,-2.0426742873519657,-0.22359818137511608,0.06959229940325021
1740240350896152600,7.439152587890625,-0.9503186108618974,0.010164981792122125,0.061108183370158074
1740240350906173400,7.44917333984375,0.07552607336640357,0.2069870921835303,0.015579079262726009
1740240350916195300,7.4591953125,0.8284832062631845,0.35784897704124446,0.018430303975380955
1740240350926216400,7.469216552734375,1.3859060766220093,0.4986370655216276,0.05305405625216662
1740240350936238600,7.479238525390625,1.8726672647804021,0.6201235105521976,0.1684022542560473
1740240350946259500,7.489259521484375,1.9731220276981591,0.7581095472238958,0.2736012160262093
1740240350956280600,7.499280517578125,2.076544408249855,0.8408535891450941,0.4778212546491995
1740240350966302500,7.509302490234375,2.207953112357855,0.9862035787135363,0.6316911987490952
1740240350976323300,7.5193232421875,2.245942359012365,1.1135270593345166,0.6502144782375544
1740240350986345500,7.529345458984375,2.2643699961066246,1.2089184013828635,0.5596246181868016
1740240350996366600,7.53936669921875,2.2918507082283495,1.3378577927678823,0.5257205219540745
1740240351006387500,7.549387451171875,2.5391151580035687,1.387162360293418,0.5723060397792608
1740240351016409300,7.559409423828125,2.7963807773113247,1.5969439055010675,0.7378477535050362
1740240351026430500,7.569430419921875,2.930662991029024,1.416194247379899,0.6557843873243778
1740240351036452400,7.579452392578125,2.506840197342634,1.082323381166905,0.39217546340450643
1740240351046473500,7.589473388671875,2.4248411285698412,1.134844864912331,0.5173210885297507
1740240351056494600,7.59949462890625,2.7057646868407725,1.2139024734057486,0.6591581746064126
1740240351066516500,7.6095166015625,2.6625398776203393,1.160530948702246,0.6800328395266085
1740240351076537300,7.619537353515625,2.351302429628372,1.1046269829116762,0.7439109260015189
1740240351086559200,7.629559326171875,1.948834558659792,1.045045789913088,0.7135172490425408
1740240351096580600,7.63958056640625,1.7533166627347467,1.005548038391769,0.7141825810834765
1740240351106602500,7.6496025390625,1.835177199819684,0.8641334885761142,0.730339204505831
1740240351116623400,7.659623291015625,1.9050953701764344,0.7263559800885617,0.6907975407775491
1740240351126644500,7.66964453125,1.9896908851832151,0.5610610807307064,0.5305700443444773
1740240351136666400,7.679666259765625,1.8659540308773517,0.42060178581327196,0.48519426763523366
1740240351146687500,7.6896875,1.5983260075092314,0.3218054576270282,0.37902689922433347
1740240351156709400,7.69970947265625,1.4100082522213457,0.2389469955459237,0.2853426533548161
1740240351166730500,7.70973046875,1.1046318052172661,0.17213599742427468,0.24464602917144074
1740240351176751400,7.71975146484375,0.7557885569304227,0.15104001790359614,0.2548407119820826
1740240351186773200,7.729773193359375,0.49884734727144237,0.10065671523064375,0.18515969311576336
1740240351196794600,7.739794677734375,0.3295920198500156,0.00670242024809122,0.1540998803982511
1740240351206816500,7.74981640625,0.2951812162041664,-0.10064794740229845,0.15991512428196147
1740240351216837400,7.75983740234375,0.2129629517227411,-0.20363062136247753,0.1689898266193457
1740240351226858500,7.7698583984375,-0.06742226188778877,-0.26108561598733065,0.2369939983146265
1740240351236880400,7.77988037109375,-0.26588147196173667,-0.281838773419708,0.26154481273060665
1740240351246901500,7.789901611328125,-0.399116806975007,-0.3009837650030851,0.14064066110001877
1740240351256923400,7.79992333984375,-0.5336790066778659,-0.29965456222593784,0.049299891350418325
1740240351266944500,7.809944580078125,-0.7348807934582233,-0.29542203922271726,-0.0467586824350059
1740240351276965400,7.81996533203125,-0.8452040394395589,-0.2713447058036923,-0.1778160340883769
1740240351286987300,7.8299873046875,-0.8153074983477592,-0.30307562271580096,-0.2935541995242238
1740240351297008600,7.840008544921875,-0.7046370463639497,-0.34411870398297906,-0.2740855289444327
1740240351307030500,7.850030517578125,-0.5133884983211755,-0.40439328607320785,-0.19181885874401777
1740240351317051400,7.860051513671875,-0.32241467556655407,-0.4701332939624786,-0.12016973640881479
1740240351327073300,7.8700732421875,-0.44747138029932976,-0.4886787122175097,-0.002192614673450589
1740240351337094400,7.880094482421875,-0.7805886516660452,-0.5105515213295817,0.12599738311637193
1740240351347115500,7.890115478515625,-0.9969903456658125,-0.5090395093314349,0.139662372386083
1740240351357137400,7.900137451171875,-1.1853297282636166,-0.4282020316839218,0.20668697672579436
1740240351367158500,7.910158447265625,-1.26137777967751,-0.3231630097158253,0.2126402225743979
1740240351377180400,7.920180419921875,-1.2623527621895074,-0.3079423519693315,0.14735146558396517
1740240351387201300,7.930201171875,-1.243099195665121,-0.2866669242285192,0.14109989437591283
1740240351397222400,7.940222412109375,-1.054321421650052,-0.2517877724185586,0.17295851105460897
1740240351407244500,7.95024462890625,-0.7929606419831514,-0.2203760044582188,0.16119400337766854
1740240351417265400,7.960265380859375,-0.5157873761564493,-0.23840923540741205,0.16040131863001733
1740240351427287300,7.970287353515625,-0.298553907507658,-0.23647855960577724,0.15540186637490988
1740240351437308400,7.980308349609375,-0.10660860937237739,-0.1892975601054728,0.16961024180632084
1740240351447329500,7.99032958984375,0.026572365105152127,-0.1395382345497608,0.13218730553137137
1740240351457351400,8.000351318359375,0.09194353968203067,-0.10830211541727185,0.01508364216228947
1740240351467372500,8.01037255859375,0.06751286278069019,-0.06760317141264677,-0.032920126696676016
1740240351477394400,8.02039453125,0.06997253089249134,0.053930035369098184,0.002700253668334335
1740240351487415300,8.030415283203125,0.014351765957474708,0.12837722745761274,0.10741079260073602
1740240351497437400,8.0404375,0.05279460159838199,0.1281231065660715,0.15555088292416183
1740240351507458600,8.05045849609375,0.02050210528075695,0.10121259554773568,0.06333223436148837
1740240351517479400,8.0604794921875,-0.08752630776166916,0.08361527179777621,-0.00969069707756862
1740240351527501300,8.070501220703125,-0.013857260438799857,0.07982917738780379,-0.09349321680944413
1740240351537522400,8.0805224609375,0.03839490484595299,0.08033449656143785,-0.10842592446003109
1740240351547544600,8.090544677734375,0.1979980223029852,0.12690730103552342,-0.11387724866848438
1740240351557565400,8.1005654296875,0.4043260660558939,0.09786094703227281,-0.11529254056019708
1740240351567586300,8.11058642578125,0.47648880046904085,0.09024199646115302,-0.06451268545086496
1740240351577608400,8.1206083984375,0.2596007842570543,0.12807415285781026,-0.07130614498327485
1740240351587629300,8.13062939453125,-0.17592706027030944,0.14135653601810336,-0.11853123022047803
1740240351597651500,8.1406513671875,-0.07955752083957195,0.2065887405157089,-0.09318846170920878
1740240351607672600,8.150672607421875,0.011507482442259787,0.24213103240951894,-0.24851300679789853
1740240351617694500,8.160694580078125,0.031056232520937917,0.15365210009813307,-0.41928920537736264
1740240351627715300,8.17071533203125,0.1109217963963747,0.043621991844475266,-0.46589412202276287
1740240351637736400,8.180736328125,0.3896031286984682,0.10406944628357886,-0.39631738551482554
1740240351647758600,8.190758544921875,0.6256827521145344,0.21170491448566317,-0.3548886293983087
1740240351657779500,8.200779541015624,0.4895271457403898,0.09627192427515983,-0.2144506695298478
1740240351667801300,8.21080126953125,0.5690922653645276,0.00830912479236722,-0.12402498706486076
1740240351677822500,8.220822509765625,0.6145265673279762,0.07067644137814641,-0.03484152321331203
1740240351687843300,8.23084326171875,0.35807694057822226,0.04337970752120018,0.08933911107098683
1740240351697865500,8.240865478515625,0.14023849177360534,0.05786868999227881,0.08486083314577117
1740240351707886300,8.25088623046875,-0.07006780796051025,-0.07990385005921125,0.07123151797764003
1740240351717908500,8.260908447265624,0.0070984338283538815,-0.05218582205027342,0.053523025470785794
1740240351727929300,8.270929443359375,-0.08998772943913937,-0.10522592284232378,0.14593949816050006
1740240351737951500,8.280951416015625,-0.08180734559297562,-0.04124079579636454,0.03498286791276187
1740240351747972600,8.29097265625,-0.15830255625247955,0.15176380213350057,-0.10611910882238298
1740240351757993500,8.300993408203125,-0.18741116183698175,0.19046704227626324,-0.2798843514163047
1740240351768015400,8.311015380859375,-0.13166238660812377,0.1030225675791502,-0.4486832768397406
1740240351778036500,8.321036376953124,-0.06674421649575234,0.13000672835558652,-0.42174306480288504
1740240351788058600,8.33105859375,-0.27970366108715533,0.017111586059629917,-0.22074838143456726
1740240351798079500,8.34107958984375,-0.33408640865981576,-0.21661168348863719,-0.05386164630800485
1740240351808100400,8.351100341796876,-0.4553974971234798,-0.09109671359434723,0.16718739857356996
1740240351818122500,8.36112255859375,-0.8241881394177675,-0.08979410656318068,0.15070742494836448
1740240351828143400,8.371143310546875,-1.1907961769759654,-0.290327346432209,-0.05270034744367003
1740240351838164700,8.381164794921874,-1.6656921552956103,-0.15041618691682815,-0.07115213259849697
1740240351848185900,8.391185791015625,-2.5537773050844668,-0.24766323983445762,0.08617416250035166
1740240351858206700,8.401206787109375,-3.4682349134922026,-0.7019247186653316,0.21465444847363976
1740240351868228900,8.411228759765624,-3.8438212072759863,-0.7315043027624487,0.38390371148046104
1740240351878250000,8.42125,-4.012580860134959,-0.8761454134091734,0.38854514407813545
1740240351888272000,8.43127197265625,-3.810820854949951,-1.130098547168076,0.2845632664801553
1740240351898292700,8.441292724609376,-3.5373446900755163,-1.2788716430529952,0.3075869991930201
1740240351908315000,8.45131494140625,-3.67581500313282,-1.4354761632159352,0.3388088340718299
1740240351918336000,8.4613359375,-4.394108818927407,-1.9410145325586199,0.045166371742263435
1740240351928356900,8.47135693359375,-5.227491487669944,-2.3267934267938135,-0.31209245738610625
1740240351938378800,8.481378662109375,-5.773828315868974,-1.3346081433221697,0.11546440826207399
1740240351948399900,8.49139990234375,-5.939878709769249,-1.4901391890347002,0.24391543160825965
1740240351958422000,8.501422119140624,-6.740861330166458,-2.2578812186092136,-0.40949645443111654
1740240351968443000,8.51144287109375,-6.863079012081027,-2.4313325364157556,-0.3627134412724525
1740240351978464000,8.521464111328125,-6.261369256228209,-2.0654899302721024,0.21632512163221834
1740240351988486000,8.53148583984375,-6.162308578017353,-2.2114725186556576,-0.052554070840775964
1740240351998506800,8.5415068359375,-5.9768953119993204,-1.7698510334283113,-0.06956036989502608
1740240352008528600,8.551528564453125,-5.767319664627314,-0.8167869232505559,0.6469475123308599
1740240352018550000,8.561550048828124,-5.431584904238582,-1.1552236360743642,0.9959129256926477
1740240352028572000,8.571572021484375,-4.8267783514142035,-1.758702447426319,0.9838102538362145
1740240352038592800,8.5815927734375,-4.055487104925513,-1.3850152652621268,1.0135613220427184
1740240352048614000,8.59161376953125,-3.606666648104787,-1.1120289297312498,0.8190900856263935
1740240352058635800,8.6016357421875,-3.7006314644813534,-1.0393424637049435,0.5411130291361361
1740240352068657000,8.611656982421875,-3.88452731167376,-0.7453788065969944,0.538297460258752
1740240352078678800,8.6216787109375,-3.978705478540063,-0.5301514170736075,0.58493346616216
1740240352088700000,8.631699951171875,-3.7184149584531783,-0.28550387179851533,0.575792274459824
1740240352098721800,8.6417216796875,-3.092429423999786,-0.12674538847208022,0.5297907670676708
1740240352108742700,8.65174267578125,-2.3887428102284667,0.08156067735552787,0.47148573148474093
1740240352118764000,8.661763916015625,-2.1311317384839055,0.2709960384964943,0.11838416816629468
1740240352128786000,8.671785888671875,-2.295516244998574,0.36577684743106365,-0.2562786540970206
1740240352138806800,8.681806884765624,-2.424811317953467,-0.08551789054870605,-0.5340492282297462
1740240352148828700,8.69182861328125,-1.715393467053771,1.7694594037622213,0.41929874039068815
1740240352158849800,8.701849853515625,-1.3707722203761339,2.024305102446675,0.6040348377995193
1740240352168871000,8.711870849609374,-1.5279332053780554,1.0665215625315905,-0.2353940523047
1740240352178892800,8.721892822265625,-1.266575932842493,1.6327917562127112,-0.4659575426477939
1740240352188914000,8.731913818359375,-1.0401204623401163,1.9993191297501325,-0.4953067520551383
1740240352198935800,8.741935791015624,-0.5441448711127043,1.9142419687062502,-0.35765849597044286
1740240352208956700,8.751956787109375,0.23513503604233263,2.141289559882879,0.059017202440276736
1740240352218978000,8.76197802734375,0.7554863591134547,2.034786748972535,0.16384243552722036
1740240352229000000,8.772,0.9488280800431966,2.0075170492529866,0.19473993382249027
1740240352239020800,8.782020751953125,1.018962523499131,1.9474527489125728,0.0018895766062662005
1740240352249042700,8.792042724609376,1.1256348457574843,2.260396416300535,-0.08008903390038757
1740240352259063800,8.802063720703124,1.1373042407631873,2.9213036265313623,0.22135138882901517
1740240352269086000,8.8120859375,0.8122200537264347,2.3381197074502706,-0.31285924050752073
1740240352279106800,8.82210693359375,0.8112649449586867,2.588454066190123,-0.32476880094464866
1740240352289128000,8.8321279296875,1.1891162610650061,2.386734393015504,-0.4500055384194478
1740240352299149800,8.84214990234375,1.8909364964425563,2.3322581219404936,-0.6187385589998216
1740240352309170700,8.852170654296875,2.4491163226485253,3.0621546972453593,-0.286170555546321
1740240352319192800,8.86219287109375,2.628611889055371,2.9226936195850373,-0.21271606428958476
1740240352329214000,8.8722138671875,3.0434803919136524,2.8103502659529447,-0.2075883460123092
1740240352339235800,8.88223583984375,3.396645595052838,2.832684262835979,-0.07604574985895306
1740240352349256700,8.892256591796874,3.637296764168143,2.559692666608095,0.02342917170859873
1740240352359277800,8.90227783203125,4.2076761467337604,2.703184022697806,0.3711356345178559
1740240352369300000,8.912300048828126,4.451435218736529,2.0253712703734634,-0.19473058147225528
1740240352379320800,8.92232080078125,5.023398071101307,1.8157593826442955,-0.7520150297410786
1740240352389342700,8.9323427734375,5.398801409533619,2.136778804460168,-0.4027230513060465
1740240352399363800,8.94236376953125,5.40437716383934,2.091531549501419,-0.2090602451957762
1740240352409384700,8.952384765625,5.382970218673348,2.027375011411309,-0.2848153050124645
1740240352419406800,8.96240673828125,5.24333436896801,2.147189139315486,-0.0934206721630413
1740240352429428000,8.972427978515626,5.060139363521337,2.2571792078197,0.24320651615392416
1740240352439449900,8.982449951171875,4.998687408214807,2.3636726663798093,0.559860399704054
1740240352449470700,8.992470703125,5.1850908543139695,2.505615039461851,0.6362360025718807
1740240352459492900,9.002492919921876,5.068919466826319,2.2857973995387555,0.4821595030492171
1740240352469514000,9.012513916015624,4.460493554461002,2.272553302562237,0.471207097206451
1740240352479534800,9.022534912109375,3.9735745453923936,2.54131354483068,0.6016958734579384
1740240352489556700,9.032556640625,3.7719682694643732,2.683521875372529,0.4756196164190769
1740240352499577900,9.042577880859374,3.9570921971470114,2.784065485617518,0.07351470614452846
1740240352509600000,9.05260009765625,3.865890415742993,3.036890492129326,-0.35285650251619516
1740240352519620900,9.062620849609376,4.474720232734084,3.3888924967080354,-0.4781350333061069
1740240352529642000,9.07264208984375,4.348170659095048,3.3712603939056396,-0.708403340094909
1740240352539664000,9.082663818359375,4.1137697825461625,3.0449837822139263,-0.9790611596129835
1740240352549684700,9.092684814453126,4.2185804025858635,3.003236059808731,-1.0079840333670378
1740240352559707000,9.102706787109375,4.060312333124876,2.9545494780510664,-1.0207227381046862
1740240352569728000,9.11272802734375,3.91390129019618,2.9090017788410183,-0.6792839939206838
1740240352579750000,9.12275,4.320700468367338,3.0965789448946714,-0.46540666729938235
1740240352589770800,9.132770751953124,4.99733950073719,3.1537872712820767,-0.35351945993695405
1740240352599791900,9.1427919921875,5.359067365038395,3.2836142591565847,-0.1273514372069854
1740240352609814000,9.15281396484375,5.381973024329543,3.423656936097145,-0.043799380538263356
1740240352619835000,9.1628349609375,5.317712441343069,3.364479939985275,-0.1887187555705197
1740240352629856800,9.172856689453125,5.155787018418311,3.252542244544625,-0.2655057339845225
1740240352639878000,9.1828779296875,5.3234349106431,3.3176562294900416,-0.3493829446541145
1740240352649899800,9.192899658203125,5.764366660040617,3.1544682392835615,-0.5911599029289558
1740240352659921000,9.2029208984375,5.736102688586712,2.8552357018619774,-0.7800211539763957
1740240352669942000,9.21294189453125,5.554443222144246,2.772148253330588,-0.5973207271136343
1740240352679964000,9.2229638671875,5.630791133287548,2.8572441190749407,-0.12300718832444399
1740240352689984800,9.23298486328125,5.8388329952210185,2.9473849932491776,0.33905805959254504
1740240352700006700,9.243006591796876,6.533297022616863,3.0883278338998554,0.1084617629583925
1740240352710028000,9.253028076171875,7.106347085696458,3.259133313372731,-0.4652468370951712
1740240352720049000,9.263048828125,7.319236387661099,3.380108886271715,-1.1273514404170215
1740240352730070800,9.27307080078125,7.334616912144422,3.766653211921453,-1.2097876584980636
1740240352740092000,9.283091796875,6.86391312481761,4.178169481742382,-0.7683973516780883
1740240352750113800,9.29311376953125,6.217111012306809,4.494691592139006,-0.4722457560718059
1740240352760135000,9.303135009765626,5.389581161245704,4.603559378615022,-0.5355682544905692
1740240352770156800,9.31315673828125,4.936355747464299,4.547910264368355,-0.6224173205778002
1740240352780178000,9.323177978515625,4.861615271517634,4.454151491957902,-0.7709935787163674
1740240352790198800,9.33319873046875,5.084117035958171,4.11889282464832,-0.8972373012766242
1740240352800220700,9.343220703125,5.648315684062243,3.8427535780444737,-0.8954426729448139
1740240352810242000,9.353241943359375,6.221158241870999,3.770430392372608,-0.5716054902944714
1740240352820264000,9.363263916015624,5.856456914716959,3.564328266330063,-0.65719564236179
1740240352830284800,9.373284912109375,5.032912333899736,3.3584558573901653,-1.17354123692289
1740240352840306400,9.383306396484375,4.613699079835414,4.646242920565605,-0.900402487309277
1740240352850327600,9.39332763671875,3.442952003675699,4.400348882360756,-0.6901845965109765
1740240352860348400,9.403348388671875,2.416909166526794,4.049783340325951,-0.4807910277076065
1740240352870370300,9.413370361328125,1.5732418351352213,4.2001010353043675,0.25560645392388104
1740240352880391400,9.423391357421876,0.5631055921703577,4.357260559001564,0.6609072102308273
1740240352890413600,9.43341357421875,-0.3780751879900694,4.501047098645568,0.5382932224750518
1740240352900434400,9.443434326171875,-1.1689286285609006,4.345782302653789,0.2240687214963138
1740240352910455600,9.45345556640625,-2.0959294921994207,3.6994980765372514,0.15195742500945925
1740240352920477400,9.4634775390625,-2.497535777902603,3.0501077010989186,1.0177953794158994
1740240352930498300,9.473498291015625,-2.709997209843993,2.7170740163624285,2.9103520244061944
1740240352940520400,9.4835205078125,-2.9439246236622334,2.4851409912317988,4.195518968211114
1740240352950541600,9.49354150390625,-3.775363757121563,2.434221681986004,4.365937786453962
1740240352960563500,9.5035634765625,-5.124370720413327,2.6476141111671923,3.642970133629441
1740240352970584300,9.513584228515626,-6.459247451543807,2.4719717130571603,2.9750919153422117
1740240352980605400,9.52360546875,-7.845591919583081,1.9599536263063548,2.438733021930605
1740240352990627600,9.533627685546875,-9.053815032178163,1.210471549108997,1.913423345799744
1740240353000648400,9.5436484375,-9.4340967903018,0.7395061151713133,1.475780262684077
1740240353010670300,9.55367041015625,-8.050089240777492,2.525194476939738,1.8251421280175446
1740240353020691500,9.56369140625,-8.505017366823553,1.4866127684742212,0.8064886704675853
1740240353030712300,9.57371240234375,-8.666579217132925,0.8266808330163359,0.07708470098525286
1740240353040734500,9.583734375,-8.518369015827775,0.7968763541221618,0.16530322879478335
1740240353050755600,9.593755615234375,-9.031210401660204,0.5081295548796654,0.31436829336360095
1740240353060777500,9.603777587890624,-9.271682707077264,0.6057236676692962,0.8094912132844329
1740240353070798300,9.61379833984375,-9.198856540319323,0.46038785275667904,0.6007135844223201
1740240353080820500,9.623820556640625,-9.158119456261396,0.00581555441096425,-0.27990605179145933
1740240353090841600,9.633841552734374,-8.423661272129417,-0.20859832677245138,-1.2196855868518353
1740240353100862500,9.643862548828125,-7.123118772277236,-0.3262701819509268,-1.3742777442790568
1740240353110884400,9.65388427734375,-5.561781894469261,-0.4467085792332887,0.06682751086503266
1740240353120905500,9.663905517578126,-4.54656790984869,-0.8311005491547286,1.6078100212998687
1740240353130927600,9.673927734375,-4.883403324955702,-1.274045245809853,2.0074857773318886
1740240353140948500,9.683948486328125,-5.675557326731085,-1.2743727241985499,1.1205247362021356
1740240353150970400,9.693970458984374,-6.603301702213287,-0.9452442302070557,-0.11001673731543123
1740240353160991500,9.703991455078125,-6.733721979805827,-0.9586388415701687,-1.133732373625785
1740240353171012400,9.714012451171875,-6.0573132490605115,-1.2815684809215366,-2.0263088434845207
1740240353181034500,9.724034423828124,-5.297193384927511,-1.550645241793245,-2.9470500622063875
1740240353191055600,9.7340556640625,-4.837215574276447,-1.4565408708155154,-3.2824186196312306
1740240353201077500,9.744077392578125,-4.607836909803748,-1.0191353227827697,-2.1801840848140417
1740240353211098400,9.754098388671874,-4.450265590435266,-0.9513489037577062,-0.38673097079563884
1740240353221119500,9.764119384765625,-4.935860657423734,-1.114678567457199,0.6775531515400857
1740240353231141600,9.7741416015625,-6.022753976854681,-1.1326190786216408,0.9827140560973435
1740240353241162500,9.78416259765625,-7.120294947028159,-1.0116294041320681,1.1644116625931114
1740240353251184400,9.794184326171875,-7.151779634094238,-0.8556394356708973,1.4706578051038086
1740240353261205500,9.80420556640625,-6.371825773200392,-0.8484403910122811,1.6261337596282361
1740240353271227400,9.814227294921874,-5.680020735880732,-0.7828596653379499,2.048375129342079
1740240353281248500,9.82424853515625,-5.244494060397148,-0.7009883145980537,2.964631603865325
1740240353291269600,9.83426953125,-5.089820800557733,-0.9203560187965631,3.3827374812096354
1740240353301291500,9.84429150390625,-4.694914304754137,-1.1605252496138214,3.24895269562006
1740240353311312400,9.8543125,-4.108298073136806,-0.9760665078416466,3.3321120403438806
1740240353321334300,9.864334228515625,-3.3158541485041377,-0.9192989840243011,3.3659786541104313
1740240353331355600,9.874355712890624,-2.7215818491756916,-0.7872481095552444,3.296011968436837
1740240353341376500,9.88437646484375,-2.429814240807295,-0.6420246689759195,3.190640791904926
1740240353351398400,9.8943984375,-2.547559745743871,-0.41319063277393575,3.3573826752007006
1740240353361419500,9.90441943359375,-2.82490661457181,-0.17417818904267623,3.8470565359354016
1740240353371441400,9.91444140625,-2.657057062295079,-0.03127831430640071,3.9798195772618055
1740240353381462300,9.924462158203125,-2.2524036639809606,0.16569029188361017,3.5525314455524084
1740240353391484400,9.934484375,-1.8396335947066544,0.4193072524907067,2.957243539440632
1740240353401505500,9.944505615234375,-1.7700030091196297,0.67305963951312,2.7411832062244414
1740240353411526400,9.9545263671875,-1.9126690203011034,0.7639808504100889,2.6638375162154433
1740240353421548300,9.96454833984375,-1.8743471806913614,0.8835198876999318,2.7194161955744027
1740240353431569400,9.9745693359375,-1.9814707538485525,1.116696629281342,3.005283347727358
1740240353441591600,9.984591552734376,-2.201523956093192,1.1347884585499763,3.5431805566221475
1740240353451612400,9.9946123046875,-2.5375182442009447,0.9660840430095792,3.880374575908482
1740240353461634300,10.00463427734375,-2.8167969578742977,0.9949592782296239,3.8946836717680093
1740240353471655400,10.014655517578126,-2.6579309225201606,1.1042517198584973,3.2073975731775164
1740240353481676300,10.02467626953125,-2.4145611420959234,1.2360124522745608,2.371081189070642
1740240353491698400,10.034698486328125,-2.371838437178731,1.314003162188828,1.92180480517596
1740240353501719600,10.044719482421876,-2.2859312550514934,1.3055267180055379,1.9286600778982042
1740240353511741400,10.054741455078124,-2.412082769283652,1.460496768834442,2.303437101125717
1740240353521762300,10.06476220703125,-2.7368974917292594,1.4551862413361667,2.4391321042507887
1740240353531783400,10.074783447265625,-2.8130992724001405,1.5327501041404903,2.439918870714307
1740240353541805600,10.0848056640625,-2.49351309825778,1.599560371609777,2.320600709633529
1740240353551826400,10.094826416015625,-1.8478379439502954,1.5995666552200913,2.105893544591963
1740240353561848300,10.104848388671876,-1.4426713354170322,1.7260601147577166,1.9738994418114422
1740240353571869400,10.114869384765624,-1.4638234290391205,1.8365920350536702,2.2331574039801954
1740240353581891600,10.1248916015625,-1.3720932398468255,1.8868720234826206,2.495950554537773
1740240353591912400,10.134912353515626,-1.5668880821943283,1.8690315386265515,2.570104755029082
1740240353601933600,10.14493359375,-1.7002695476800203,1.9349469030827282,2.5630337937295433
1740240353611955500,10.15495556640625,-1.530466523247957,2.1215131385281683,2.5647850213110446
1740240353621976300,10.164976318359376,-1.2437415852218865,2.1704633396580815,2.756830857211351
1740240353631998500,10.17499853515625,-0.9725649294614791,2.140972456757724,2.8305662477687
1740240353642019600,10.18501953125,-0.8953753067970275,2.22569802788496,2.858675613182783
1740240353652041500,10.19504150390625,-1.095472931727767,2.3320523702353237,2.9054107686117288
1740240353662062300,10.205062255859374,-1.1473960111886263,2.346064236713946,2.6249226791486144
1740240353672083500,10.21508349609375,-1.3028303185284138,2.5935619107231496,2.2735919979602097
1740240353682105600,10.225105712890626,-1.5151508806943892,2.8797748075738547,2.2827301209226247
1740240353692126500,10.23512646484375,-1.5175000741690396,2.9893966272875665,2.4509157732859252
1740240353702148400,10.2451484375,-1.423814659255743,3.138699007743597,2.728122649121284
1740240353712169500,10.25516943359375,-1.0874971305429935,3.256175632610917,2.6274790856331585
1740240353722191400,10.26519140625,-0.8317273027509451,3.334315980128944,2.209511447715759
1740240353732212500,10.27521240234375,-0.4382803581058979,3.5583792947977777,1.960647161528468
1740240353742233600,10.285233642578126,0.0004103343665599823,3.690233404585719,1.6942115628153085
1740240353752255500,10.29525537109375,0.17993220425844192,3.704679570828378,1.514453546079993
1740240353762276400,10.3052763671875,0.20462533148825168,3.808739080239832,1.6738886134937405
1740240353772298200,10.31529833984375,0.12414660415053366,3.8464208683803673,1.8797756354808806
1740240353782319600,10.325319580078125,0.2942746227532625,3.837824597209692,1.9508374229148029
1740240353792340500,10.335340576171875,0.5095797536879778,3.8464229142069812,2.1661247259318825
1740240353802362400,10.3453623046875,0.7131617136031388,3.743348908701539,2.2880030928894874
1740240353812383500,10.355383544921875,0.8349369124472141,3.698715401726961,2.1556141455724833
1740240353822405400,10.3654052734375,0.8509364456117152,3.7064597322434185,1.966993900206685
1740240353832426500,10.375426513671876,0.9149310711383819,3.7408763811081647,2.008068253394961
1740240353842448600,10.38544873046875,0.8046616011708975,3.653977265334129,2.0408318743556735
1740240353852469800,10.3954697265625,0.6650707596510649,3.5232103662610053,1.8662492144316434
1740240353862491000,10.405490966796876,0.6708323919177055,3.6364503764718767,1.7237562217295168
1740240353872512800,10.4155126953125,0.7376362296462059,3.7124516661345957,1.6055401766717432
1740240353882534000,10.425533935546875,0.9828910931646824,3.729601538378,1.5163327839553356
1740240353892555800,10.4355556640625,1.1477718587636947,3.776873577162623,1.4191647876232862
1740240353902576600,10.44557666015625,1.2041998484283685,3.7323634043067693,1.4148650446027518
1740240353912598800,10.455598876953125,1.5380208841502665,3.7156110069483517,1.290414489069581
1740240353922620000,10.465619873046874,1.642872420722246,3.807328921180963,1.094176462176442
1740240353932640800,10.475640869140625,1.542031873357296,3.7741052814930676,0.8968652530938387
1740240353942662700,10.48566259765625,1.5313970820963383,3.7055133913040157,0.5094166720807553
1740240353952683800,10.495683837890626,1.4660481193512678,3.808153681567311,0.2432838557064533
1740240353962706000,10.505705810546875,1.6954817288815973,3.7232127141237257,-0.11189034916758536
1740240353972726800,10.515726806640625,1.9946569831579923,3.5913796471238135,-0.48616614487469195
1740240353982748000,10.525747802734376,2.1115257052600382,3.5319431232929226,-0.8096206848829984
1740240353992769800,10.535769775390625,2.1505898876696823,3.3436341358333825,-1.4027116654723881
1740240354002790700,10.545790771484375,1.875392305830121,3.3183851282864807,-1.6253846948266029
1740240354012812800,10.555812744140624,1.5571359189867973,3.168095198097825,-1.5547580839395523
1740240354022834000,10.565833984375,1.7016946120470762,2.9518279441326856,-1.6332500213742256
1740240354032855800,10.575855712890625,1.891399437779188,2.802790936614573,-1.7594097189128397
1740240354042876700,10.585876708984374,1.8666525345355272,2.734967400449514,-1.6756155834168194
1740240354052897800,10.595897705078125,1.7088409766703843,2.4759625362589954,-1.828791298174858
1740240354062920000,10.605919921875,1.5440332763075828,2.1460876078143714,-2.2762591713428497
1740240354072940800,10.61594091796875,1.2020441316992043,2.031487415166199,-2.703122940160334
1740240354082962700,10.625962646484375,0.9399123676598071,1.8590128334373235,-2.9294626753285526
1740240354092983800,10.63598388671875,0.7392723064154386,1.8288705008909105,-2.5901918497681615
1740240354103006000,10.646005859375,0.39852234821319577,1.6964722012236713,-1.9503569459214805
1740240354113026800,10.65602685546875,0.25043255841732026,1.3715820754542947,-1.7335674216479062
1740240354123048000,10.6660478515625,0.3584031037926674,1.2941159739360213,-1.7527055450990796
1740240354133069800,10.67606982421875,0.7547434317916631,1.092896943759918,-2.1893536258280277
1740240354143090700,10.686090576171875,1.0265437724083661,0.9090250619649887,-2.625185421738028
1740240354153112800,10.69611279296875,0.8932757041692734,0.8942354891121387,-2.725454306694865
1740240354163134000,10.706134033203124,0.5787117421030998,1.1355132656931877,-2.2565707205325363
1740240354173154800,10.71615478515625,0.1944376994729042,1.2912123614490032,-0.8422671092048287
1740240354183176700,10.7261767578125,-0.3514782729655504,1.102800498136878,0.30415976469069717
1740240354193197800,10.73619775390625,-0.8479191436171531,0.8225237133368849,-0.07814677725881337
1740240354203220000,10.746219970703125,-1.448936241030693,0.85459233777076,-1.1726312824711203
1740240354213240800,10.75624072265625,-1.8584639673829078,0.930805808879435,-2.2236220983937383
1740240354223262700,10.7662626953125,-1.6824322776943443,0.9477066747978329,-2.548028532299399
1740240354233283800,10.776283935546875,-0.9082891489058732,1.0458537452951073,-1.8842809840761123
1740240354243304700,10.7863046875,-0.3786024267345667,0.9176154879167675,-0.6433977839600294
1740240354253326800,10.796326904296874,-0.12796820826530456,0.6290878843829035,0.6555320930637419
1740240354263348000,10.806347900390625,-0.24478549244105816,0.3885860606104135,0.8414546968434006
1740240354273369900,10.816369873046876,-0.8893272588044404,0.49210108788162465,0.5997065262716264
1740240354283390700,10.826390625,-1.5415098953098059,0.6428463606223463,0.8617313958704471
1740240354293412600,10.83641259765625,-1.7962988953709602,0.3684682784721255,0.8164033307604491
1740240354303434000,10.84643408203125,-2.0872750611007214,0.13376988028138875,-0.08258101511290296
1740240354313454800,10.856454833984374,-2.490959322121739,0.27105127581506966,-1.0148931551683693
1740240354323476700,10.866476806640625,-2.6762726348966357,0.3265338013231754,-1.282717504826188
1740240354333497900,10.876497802734375,-2.6214760458260775,0.23982319385856388,-1.3857133305288851
1740240354343519700,10.886519775390624,-2.6980449062436818,0.12103314830511808,-1.4582885912656782
1740240354353540900,10.896540771484375,-2.516101362162828,0.02966974659860134,-1.2345561159864067
1740240354363562800,10.906562744140626,-2.0659879429221153,-0.08301146068572998,-0.8731794032104313
1740240354373584000,10.916583984375,-1.6798346624165772,-0.16860943073332307,-1.283607147142291
1740240354383604700,10.926604736328125,-1.2253601253569126,-0.32917584026455876,-1.6320776165939868
1740240354393626600,10.936626708984376,-0.5799485904216766,-0.4113640018686652,-1.2144707748129964
1740240354403648000,10.94664794921875,-0.35590251914858817,-0.48466626170575616,-0.9799477331891655
1740240354413670000,10.956669921875,-0.9487047459244727,-0.5787088194936514,-1.446610720692575
1740240354423690800,10.966690673828126,-2.104171835365891,-0.31120968320220704,-2.2658859536275266
1740240354433711900,10.9767119140625,-3.185316966533661,0.06338029302060603,-2.983166208465397
1740240354443733800,10.986733642578125,-3.134463562130928,0.13817746759057045,-3.146738521814346
1740240354453755000,10.9967548828125,-2.3588918618440626,-0.001210252572596073,-3.151748166669905
1740240354463776800,11.00677685546875,-1.7418553575217723,-0.034817923142015934,-2.84193315269649
1740240354473798000,11.0167978515625,-1.523223127990961,-0.09137684570997953,-2.28841839569211
1740240354483819800,11.02681982421875,-1.8842840528160332,0.011640461172163486,-2.241468136207759
1740240354493840600,11.036840576171874,-2.445034021770954,0.2892275684967637,-2.3895655247882006
1740240354503862000,11.046862060546875,-3.1539982836842535,0.3173822343572974,-2.856588870036602
1740240354513884000,11.0568837890625,-3.7607483717918395,0.6010004385396838,-3.635310851047933
1740240354523904800,11.06690478515625,-4.155372543522716,0.8671198109105229,-4.465984553092718
1740240354533926700,11.0769267578125,-3.8887522358924147,0.9629913376912475,-4.42916435021758
1740240354543947800,11.08694775390625,-3.010285978320241,0.7908218763887882,-3.7422397784158585
1740240354553970000,11.096969970703125,-2.2102286560744044,0.5469231036543846,-3.194833275158703
1740240354563990800,11.10699072265625,-2.005557731878757,0.5044108266174793,-3.1641756865665314
1740240354574012000,11.117011962890626,-2.2614865496248004,0.4729848840013146,-3.2983529786050316
1740240354584033800,11.12703369140625,-2.7067864311039447,0.32884032469987867,-3.165741328448057
1740240354594054700,11.1370546875,-2.9970494801282883,0.26525018832087516,-2.639476981940865
1740240354604076800,11.147076904296876,-3.1321476864039894,-0.001408405493199825,-2.393513093370199
1740240354614098000,11.157097900390625,-3.4204642775356766,-0.15989157900959253,-2.590528534376621
1740240354624118800,11.167118896484375,-3.723686176854372,-0.03879413329660892,-3.2147885602116584
1740240354634140700,11.177140625,-3.779288821610808,0.07722118684649466,-3.8131250402390955
1740240354644161800,11.187161865234375,-3.154548903304338,0.000827098473906517,-3.799134508809447
1740240354654184000,11.197183837890625,-2.533944477367401,-0.21880670931488275,-3.8121564874678846
1740240354664204800,11.207204833984376,-2.633162976488471,-0.28675533316433427,-3.9102287391632795
1740240354674226700,11.217226806640625,-3.2272926524758336,-0.23944296236932278,-4.184750613698363
1740240354684247800,11.227247802734375,-3.6051767018079754,-0.15225743086934088,-4.428259510332346
1740240354694268700,11.2372685546875,-3.472306692975759,-0.12501111202538012,-4.3152398648738854
1740240354704290800,11.247290771484375,-3.2309599428117273,-0.13372516435682774,-4.15834834446311
1740240354714312000,11.25731201171875,-2.976570171201229,-0.125936410176754,-4.027783689963817
1740240354724333800,11.267333740234376,-2.7653122698307038,-0.07519874110817909,-3.9307226611375805
1740240354734354700,11.277354736328125,-2.7445547284841534,-0.06858925984054803,-3.7633220216721295
1740240354744375800,11.287375732421875,-2.603742236214876,-0.0601119388744235,-3.4011259553372857
1740240354754398000,11.29739794921875,-2.2635586797237397,-0.07722995467483997,-2.8127041356027123
1740240354764418800,11.307418701171875,-2.1470067684859035,-0.24067571903467178,-2.1368664827436206
1740240354774440700,11.317440673828125,-2.1638515203028916,-0.3663186992228031,-1.675930056193471
1740240354784461800,11.3274619140625,-2.1092226890146732,-0.2942503650948405,-1.5433102227300404
1740240354794484000,11.33748388671875,-1.931340403023362,-0.12024024436175823,-1.6519535528004168
1740240354804504800,11.3475048828125,-1.7694062122702598,0.016068506747484206,-1.8739771783351897
1740240354814526000,11.35752587890625,-1.6751181552886962,0.14636837283074855,-2.1068068600445984
1740240354824547800,11.3675478515625,-1.6802011576414106,0.31553105353266,-2.3497096074789763
1740240354834568700,11.377568603515625,-1.5445891566246748,0.3531058741673827,-2.4004946228206157
1740240354844591400,11.38759130859375,-1.482892286646366,0.38670740725696084,-2.2378736188471318
1740240354854612200,11.3976123046875,-1.6038994237273931,0.5059656548440457,-2.1107214031398294
1740240354864634600,11.407634521484376,-1.5479618479281663,0.6350476695701479,-2.1368384256929156
1740240354874655500,11.417655517578124,-1.4312439324736594,0.7279729137659072,-2.3010785553008315
1740240354884676400,11.42767626953125,-1.437160463041067,0.8538409348815679,-2.405924831175804
1740240354894698500,11.437698486328125,-1.2999056632533668,0.9365013901725411,-2.445527942767739
1740240354904719400,11.44771923828125,-1.3323966047525404,1.0695458787888288,-2.4403023170739413
1740240354914741500,11.457741455078125,-1.5606363283231854,1.2213836229413748,-2.3444418962091205
1740240354924762400,11.467762451171875,-1.6485434520959854,1.4612705296859145,-2.226302423518896
1740240354934784500,11.477784423828124,-1.656026209066808,1.6962226103767752,-2.034402133569121
1740240354944805400,11.487805419921875,-1.4058017404422163,1.954476071678102,-1.8752268861353396
1740240354954826200,11.497826171875,-0.7940840930551291,2.1064412416025995,-1.5655056879252194
1740240354964848600,11.5078486328125,-0.2975339168101549,2.1834397256091234,-1.316710959842801
1740240354974869500,11.517869384765625,-0.2500970428526401,2.305943823249638,-1.1497633248418568
1740240354984891400,11.527891357421876,-0.3582721708893776,2.336344806732237,-0.7258586980909109
1740240354994912500,11.53791259765625,-0.43274844294190407,2.311741403612494,-0.2054483383089304
1740240355004933400,11.547933349609375,-0.5266951391398906,2.2758234102740884,0.2225356667101383
1740240355014955500,11.55795556640625,-0.4256687138140201,2.2844006844833493,0.531107110363245
1740240355024976400,11.567976318359374,-0.15284370632469654,2.331980474042892,0.6455611725389957
1740240355034998500,11.57799853515625,0.1058849712729454,2.362834169729054,0.5476444036662578
1740240355045019400,11.588019287109375,0.3246399504005909,2.3908283843308684,0.38163609534204
1740240355055041300,11.598041259765624,0.41696226026713845,2.485793317660689,0.3892500774770975
1740240355065062400,11.6080625,0.504713608956337,2.617560041426122,0.5448211629390716
1740240355075083500,11.61808349609375,0.7413719090431928,2.604171275281906,0.8482815471887588
1740240355085105400,11.62810546875,0.9970411990702152,2.525443775525689,1.1824801840513943
1740240355095126300,11.638126220703125,1.1409960810184478,2.4796371331185103,1.3851578886032103
1740240355105148400,11.6481484375,1.198693652227521,2.5786887512400747,1.453598387622833
1740240355115169500,11.65816943359375,1.1582809778183698,2.716291633813083,1.5680349141418932
1740240355125190400,11.6681904296875,0.9992343252003192,2.682201148162782,1.7184516855806111
1740240355135212500,11.678212646484376,0.8620464531689882,2.5996684109047052,2.029513192483783
1740240355145233400,11.6882333984375,0.8751759838551283,2.490591073331237,2.5993478006482125
1740240355155255300,11.69825537109375,0.9107575848460197,2.3826035768210887,3.2100995256125926
1740240355165276400,11.7082763671875,1.0209224253952502,2.236126775179803,3.845961726436019
1740240355175298600,11.718298583984375,1.2580144407242535,2.2155369916155934,4.371083332648873
1740240355185319400,11.7283193359375,1.453852654644847,2.1081293408200144,4.6784237732023
1740240355195340300,11.73834033203125,1.8208757027447222,1.9770435850560664,4.843985506802797
1740240355205362400,11.748362548828124,2.238812945523858,1.9486966114938258,4.925439801174402
1740240355215383600,11.758383544921875,2.5022476088553667,1.8964950073525308,5.048199334880709
1740240355225405400,11.768405517578126,2.5087527529656883,1.8261308467939494,5.379789250549674
1740240355235426300,11.77842626953125,2.371593522506952,1.8299395914271472,5.6023260863035915
1740240355245447400,11.788447509765625,2.2567735496282575,1.757279428885877,5.54634174875319
1740240355255469300,11.79846923828125,2.0694798766911027,1.7254601030379533,5.377171177005767
1740240355265490200,11.808490234375,1.8016320730924604,1.7065391294687986,5.028878548339009
1740240355275512600,11.8185126953125,1.5422551607191561,1.768823736207187,4.7665427861601115
1740240355285533400,11.828533447265626,1.3360866914421319,1.88066264744848,4.550753378839791
1740240355295555300,11.838555419921875,1.2890274186253547,1.7803598602220414,4.164404868023097
1740240355305576400,11.848576416015625,1.3124825284928083,1.6839239775568247,3.990099855996668
1740240355315597300,11.858597412109376,1.2661439711660145,1.5721595928564667,4.135041703155636
1740240355325619500,11.868619384765625,1.2261515679955481,1.5535633211970328,4.366762254579365
1740240355335640300,11.878640380859375,1.165080136439204,1.5074416214913129,4.469329771867394
1740240355345662500,11.888662353515626,1.0612959368377923,1.4603037304803728,4.509004195129871
1740240355355683300,11.898683349609374,0.9150696028262376,1.4832698877871036,4.439041893370449
1740240355365705500,11.90870556640625,0.6494985119879245,1.4984028672501444,4.28330451143086
1740240355375726300,11.918726318359376,0.2950853546142578,1.4574845814064143,4.3292505623087285
1740240355385747500,11.92874755859375,0.2356856556624174,1.402411513482034,4.47642586760819
1740240355395769300,11.938769287109375,0.17865853106081483,1.2081924251958727,4.596519981497526
1740240355405790200,11.948790283203126,0.23429624713063238,1.1327440932407975,4.74354886406362
1740240355415812600,11.9588125,0.39284956327378745,1.1254700105845927,4.629799150764942
1740240355425833500,11.96883349609375,0.801693399015069,1.2001602176487445,4.58265629131794
1740240355435854300,11.978854248046876,1.3360580498695374,1.1652601691812277,4.411328249275684
1740240355445876500,11.98887646484375,1.2855845846951006,1.128615615133941,4.154864009478688
1740240355455897300,11.9988974609375,0.8063555456072091,1.1766326270669698,3.9737706524863836
1740240355465919500,12.00891943359375,0.1970394064038992,1.2198477916762231,3.645435646960139
1740240355475940400,12.0189404296875,-0.3577022620469332,1.284431323006749,3.375830770561099
1740240355485962500,12.02896240234375,-0.3743529525965452,1.4453370474949478,3.3677278358653187
1740240355495983400,12.0389833984375,-0.24440730677843092,1.3958382725715637,3.1258103000760076
1740240355506004200,12.049004150390624,0.07621873180568217,1.4594766320064663,2.974328237493336
1740240355516026600,12.059026611328125,0.468373883074522,1.3234367609664797,2.7646581898361444
1740240355526047500,12.069047607421876,0.9060890085130929,1.3126973402872681,2.6344559389084576
1740240355536069400,12.0790693359375,1.0919342362076043,1.3738687250867485,2.6527637490153313
1740240355546090200,12.08909033203125,1.252954234725237,1.1530237879425287,2.5211171444982288
1740240355556112600,12.099112548828124,1.34457570284605,1.0657394722431897,2.384113396862149
1740240355566133500,12.109133544921875,1.1518301942437887,0.9424652670130133,2.1049777449212965
1740240355576154400,12.119154296875,0.7648994996249675,0.7703232782393693,1.6875217097878454
1740240355586176500,12.129176513671876,0.5046101485818624,0.8386673311471938,1.4877382653728126
1740240355596197400,12.139197265625,0.3360077321112156,0.8866875579506158,1.3598255866870284
1740240355606219500,12.149219482421875,0.3510731992959976,0.7991925221100449,1.1736645710416138
1740240355616240400,12.159240478515626,0.4510632673114538,0.7687231495663523,1.2374354708150028
1740240355626261500,12.169261474609375,0.6975111400067806,0.7588958752959967,1.3975963682852686
1740240355636283400,12.179283447265625,0.9286322642326355,0.7907724842891096,1.3754871200688183
1740240355646304300,12.18930419921875,1.0717881047576665,0.8367001227274536,1.3175418577089906
1740240355656326400,12.199326416015625,1.0901876848012209,0.8366574526295065,1.1323406270064413
1740240355666347500,12.209347412109375,0.8230717026084661,0.7494038243293761,0.9435223748505115
1740240355676369400,12.219369384765624,0.5877613099992275,0.6741255882441997,1.0746316576205193
1740240355686390300,12.229390380859375,0.423003878518939,0.7277446579679846,1.2608626697622238
1740240355696411400,12.239411376953125,0.24787059897482394,0.8923483601912856,1.267248279146105
1740240355706433300,12.249433349609374,0.06499532700181007,1.019233157134056,1.3355772806152701
1740240355716454400,12.259454345703125,-0.11681319252252578,1.1516548376768827,1.4683787542559206
1740240355726476500,12.2694765625,-0.1577162807971239,1.2507619853779672,1.3543752123266457
1740240355736497400,12.279497314453126,-0.09331132090389728,1.3064680905088781,1.1099258199721573
1740240355746519300,12.289519287109375,-0.10889935065805911,1.281066815009713,0.9234118992358445
1740240355756540400,12.29954052734375,-0.4132914627999067,1.1926038109198212,0.7459715117931366
1740240355766561500,12.3095615234375,-0.8496779699832201,1.237465281431377,0.38889001199305057
1740240355776583400,12.31958349609375,-0.9762813196361064,1.409838156351447,0.09229249925017356
1740240355786604300,12.329604248046875,-1.0851987904727458,1.3983847421839832,-0.1240361295133829
1740240355796626400,12.33962646484375,-1.1407149259895086,1.4959388152241706,-0.029703064346313476
1740240355806647300,12.349647216796875,-1.119967906036973,1.5634019936442374,0.32335166415572164
1740240355816668400,12.35966845703125,-0.9880594357132911,1.3177213059291242,0.5042968448489904
1740240355826690600,12.369690673828124,-0.7879787619173526,1.213139526209235,0.6854650206431746
1740240355836711400,12.37971142578125,-0.7544856576383113,1.1294489972181618,0.8052978532478213
1740240355846732500,12.389732666015625,-0.771055099645257,1.0303177379891275,0.8216086443185806
1740240355856753700,12.399753662109376,-0.8035656226277351,1.0147545504152775,0.895536634838581
1740240355866775800,12.40977587890625,-0.8415396717131137,1.0959329504549502,0.9493529807001352
1740240355876796700,12.419796630859375,-1.019513143119216,1.1280538895979524,0.9176096426978707
1740240355886817800,12.42981787109375,-1.0531973860561847,1.189657528334856,1.1394511896640063
1740240355896839700,12.439839599609375,-0.9877899711221456,1.3147456511192024,1.407329972922802
1740240355906860500,12.449860595703125,-0.8925392065882682,1.2719045805193483,1.5197306097000836
1740240355916882700,12.459882568359374,-0.7756383357822895,1.0431735663004218,1.4576619837999343
1740240355926903800,12.46990380859375,-0.6575082154422998,0.8958778494916856,1.1555468766793608
1740240355936925700,12.47992578125,-0.8034475492060184,0.9663998309604823,0.7828852381706237
1740240355946946600,12.489946533203126,-1.0719377423614262,1.019834045636654,0.3844993758186698
1740240355956967700,12.4999677734375,-1.2326841846346854,1.0611223338365554,0.06766600751578808
1740240355966989800,12.50998974609375,-1.310373573514819,1.1164312563434242,-0.20242548335641622
1740240355977010700,12.5200107421875,-1.3420569980233907,1.1203896385803818,-0.44035424177050586
1740240355987032600,12.530032470703125,-1.2775959240287542,1.2514403230309485,-0.37972909267693755
1740240355997053700,12.5400537109375,-1.086427455484867,1.3161454349145292,-0.15816168647706508
1740240356007074600,12.550074462890626,-0.9347340882390737,1.3562098804078995,0.16841741529256105
1740240356017096700,12.5600966796875,-0.8437626084595918,1.364374920554459,0.47409635237455366
1740240356027117800,12.570117919921875,-0.7740075197100639,1.2222533915132283,0.4679825456693768
1740240356037139700,12.5801396484375,-0.6347668068021536,1.0643313590109347,0.19329262109100817
1740240356047160600,12.59016064453125,-0.5138754050552845,0.8769954543672501,-0.3120879273414612
1740240356057182700,12.6001826171875,-0.44586862127780913,0.7463777545064687,-0.8642994927927851
1740240356067203800,12.610203857421874,-0.5337170006006956,0.6312639132477342,-1.4077163418918848
1740240356077224700,12.620224609375,-0.7841232555329799,0.43896454097777604,-1.8210548587039113
1740240356087246600,12.63024658203125,-1.0706611465543507,0.5281717875637114,-1.9187132689014077
1740240356097267700,12.640267822265624,-1.2779203336775302,0.7359655199550091,-1.8479891889892517
1740240356107289900,12.650289794921875,-1.4060989698231219,0.8076891322985291,-1.7827279045276343
1740240356117310700,12.660310791015625,-1.3870453097850084,0.7331745740622282,-1.7244870202220974
1740240356127332600,12.67033251953125,-1.4061743731468914,0.618518997965008,-1.7072307649947702
1740240356137353700,12.680353759765625,-1.444407949951291,0.5078738265529275,-1.8322230261892078
