time,seconds_elapsed,z,y,x
1740240343434371300,0.020371337890625,-1.5612462769150732,-0.024418255811184644,-0.009078574794903397
1740240343444435500,0.030435546875,-1.5201391905009745,-0.1067788513727486,-0.06400364908333868
1740240343454498300,0.040498291015625,-1.3072960657656192,-0.21402400508299468,-0.10511559433564543
1740240343464561200,0.05056103515625,-1.0700409688293933,-0.24969211531355975,-0.12221183669567108
1740240343474625300,0.060625244140625,-0.819713039830327,-0.23244901182875036,-0.10268011081703006
1740240343484688400,0.0706884765625,-0.5209679936647414,-0.17658479352667927,-0.08695826208274811
1740240343494751200,0.080751220703125,-0.2675198868185282,-0.15019494538158176,-0.1151795634387061
1740240343504815400,0.0908154296875,-0.1856190177232027,-0.17681202641129493,-0.057603390119597316
1740240343514878200,0.100878173828125,-0.19277941087186334,-0.1903596363790333,-0.04786631488334387
1740240343524941300,0.11094140625,-0.16068506747484207,-0.134608669193089,-0.03700911304336041
1740240343535005400,0.12100537109375,-0.17999591714441776,-0.08474149934872985,0.012120938165485859
1740240343545068300,0.131068359375,-0.22716917172968387,0.0014355857610702514,0.12075319885257631
1740240343555131100,0.141131103515625,-0.11807400623857975,0.10176920651718974,0.22091566429287193
1740240343565195300,0.1511953125,0.032083237481117244,0.08486863285973667,0.2178579206900671
1740240343575258400,0.16125830078125,0.0674906509488821,-0.02770005396082997,0.12439572007339447
1740240343585321200,0.1713212890625,0.07797522008419036,-0.1133345566265285,0.040285687028616665
1740240343595384300,0.18138427734375,0.05910217730998993,-0.11951894434988498,0.04701598166432231
1740240343605448200,0.1914482421875,0.034603111347556115,-0.06810469119399785,0.08435070993285626
1740240343615511300,0.20151123046875,0.0692728581905365,-0.008608838391304016,0.11013291104100643
1740240343625574400,0.211574462890625,0.1694932278305292,0.026601591199636457,0.1382447606731206
1740240343635638300,0.22163818359375,0.14256605793833732,-0.0036088381469249723,0.1453081231880933
1740240343645701400,0.231701416015625,0.012440963900089263,-0.0312748437076807,0.16590492101497947
1740240343655764200,0.24176416015625,-0.0705751729607582,-0.024081132811307904,0.16963062700722364
1740240343665828400,0.251828369140625,-0.1495692146986723,-0.0024827567264437676,0.18254618614912033
1740240343675891500,0.261891357421875,-0.1414431913882494,-0.000260550632327795,0.20510529702492056
1740240343685954300,0.271954345703125,-0.07542319751381873,-0.007969225313514471,0.23687910323068498
1740240343696018200,0.28201806640625,-0.05427519554495811,0.007839461454004049,0.27222718772664667
1740240343706081300,0.292081298828125,0.017030045256018637,-0.04761982930898666,0.22510011037066577
1740240343716144400,0.302144287109375,0.05853986725211143,-0.17032339504435656,0.15486122015956788
1740240343726208300,0.312208251953125,0.06860884132385253,-0.2323278696671128,0.09053151745963842
1740240343736271400,0.322271240234375,-0.10221709641516208,-0.22215309713333845,0.10232647507376968
1740240343746334200,0.332334228515625,-0.1803296791434288,-0.23278321221917866,0.12098748253248631
1740240343756398000,0.342398193359375,-0.3405804468542337,-0.25337051156535745,0.06071585958432406
1740240343766461400,0.35246142578125,-0.34043022472858425,-0.22822817926332353,0.0379284929106012
1740240343776524300,0.362524169921875,-0.4176835602790117,-0.21169395470023153,0.030225115459039806
1740240343786588200,0.372588134765625,-0.338024917152524,-0.2533919927448034,0.02452854778524488
1740240343796651300,0.3826513671875,-0.23422376641631126,-0.28262071757763624,-0.03819309866353869
1740240343806714400,0.39271435546875,-0.226322199511528,-0.26836788194999095,-0.05415759704727679
1740240343816778200,0.4027783203125,-0.1103986493051052,-0.2332959840469062,-0.086325042213127
1740240343826840800,0.4128408203125,0.022484219008684157,-0.26470073774456976,-0.1399817040009424
1740240343836904000,0.422904052734375,0.07767185322344303,-0.3462310199618339,-0.1716124119415879
1740240343846967800,0.4329677734375,0.053292614248394966,-0.4191160773001611,-0.21432028461582958
1740240343857031000,0.443031005859375,0.05701543416380882,-0.43471448231786486,-0.2630560392774641
1740240343867094000,0.453093994140625,0.05677811827659607,-0.39283275826945896,-0.2595659686719999
1740240343877158000,0.463157958984375,0.05016191500723362,-0.33082755299434063,-0.22658169069793074
1740240343887220700,0.473220703125,-0.02407002689540386,-0.30089126441404224,-0.2533351114584133
1740240343897284000,0.4832841796875,-0.0925391674876213,-0.3648934887252748,-0.3098321843039244
1740240343907348000,0.493347900390625,-0.20965864948034285,-0.4546998702481389,-0.31323779149632897
1740240343917410800,0.503410888671875,-0.3888315598040819,-0.5112554318152368,-0.31822095020376145
1740240343927474000,0.513473876953125,-0.5548363609969615,-0.5677968187265098,-0.4007543085163459
1740240343937537800,0.523537841796875,-0.7364110717654228,-0.6177848384715616,-0.5023810378229245
1740240343947601200,0.53360107421875,-0.8705985929369926,-0.6603392010845244,-0.5706891061019153
1740240343957664000,0.5436640625,-0.9473457325309514,-0.6022462008170784,-0.5703693726282566
1740240343967727900,0.553727783203125,-0.9569365676969289,-0.5575023653358221,-0.5447714785784482
1740240343977791000,0.563791015625,-0.98239191147089,-0.54461891836524,-0.5047415929418057
1740240343987854000,0.57385400390625,-0.9190554575920105,-0.5555503544852137,-0.4802655059961602
1740240343997918000,0.58391796875,-0.9510334811329841,-0.5976596036791801,-0.4731486962608993
1740240344007981000,0.59398095703125,-0.9451596206635237,-0.5999209727399051,-0.530787924878858
1740240344018044000,0.6040439453125,-0.8080471519559621,-0.725461223205924,-0.6329780236892402
1740240344028107800,0.614107666015625,-0.8698521584838629,-0.8386782909326255,-0.617693799187243
1740240344038171100,0.624171142578125,-0.9924860199838876,-0.9044972092770039,-0.5923921116050332
1740240344048234000,0.63423388671875,-1.3287240537196396,-0.8882890017978846,-0.6538966008163988
1740240344058297900,0.6442978515625,-1.6493126829028129,-0.8280009757041931,-0.6991476551674306
1740240344068361000,0.65436083984375,-1.7700298971265553,-0.7109045823261141,-0.6673737028311938
1740240344078424000,0.664424072265625,-1.8611369859844444,-0.6636947951227427,-0.6896252821277826
1740240344088488000,0.674488037109375,-2.0393378364056347,-0.7378729610115289,-0.8003945913761854
1740240344098551000,0.684551025390625,-2.0869278550982475,-0.8654580151781439,-0.9704004449039697
1740240344108614000,0.69461376953125,-1.8891320773690938,-0.841787216733396,-1.0931244689054787
1740240344118677800,0.704677734375,-1.8603011196821926,-0.849804811233282,-1.2317287836059927
1740240344128741000,0.7147412109375,-1.69933781978786,-0.9017419192194938,-1.3284630646958946
1740240344138804000,0.724803955078125,-1.386162097209692,-1.0099319525644184,-1.4254695868559182
1740240344148867800,0.734867919921875,-1.300547176027298,-1.076833697709441,-1.5424205804139375
1740240344158931000,0.744930908203125,-1.2544424274563788,-1.0672188971459864,-1.6652753911882638
1740240344168994000,0.754994140625,-1.0448521670371294,-0.9118377812981605,-1.7687816506311296
1740240344179058200,0.76505810546875,-1.0621540149718522,-0.804136408253014,-1.8392108392499387
1740240344189121000,0.77512109375,-0.7813175504624843,-0.6858341462165117,-1.864623659056425
1740240344199184000,0.785183837890625,-0.5749433294802904,-0.49003188039213413,-1.8901235726244747
1740240344209248000,0.795248046875,-0.5139928939551115,-0.4254278907954693,-2.041772516206652
1740240344219311000,0.80531103515625,-0.5357856235682964,-0.4085565432325005,-2.3174647496953606
1740240344229374000,0.8153740234375,-0.6618354309916495,-0.4175032352760434,-2.5361311737567185
1740240344239438000,0.82543798828125,-0.704409082826972,-0.3038473377406597,-2.5594918833389877
1740240344249501000,0.8355009765625,-0.613915157431364,-0.12432692915350198,-2.4270342546999455
1740240344259564000,0.84556396484375,-0.38084289913773534,0.13755378273427485,-2.2386728064008055
1740240344269628200,0.855628173828125,-0.04100654864907265,0.4082011539235711,-2.037927092824876
1740240344279691000,0.86569091796875,0.356857627916336,0.5854115320026875,-1.887713296612352
1740240344289753900,0.87575390625,0.7062105792909861,0.698791535206139,-1.7956468612030148
1740240344299818000,0.88581787109375,0.9047557140827178,0.8244862455815076,-1.7176272174552083
1740240344309881000,0.895881103515625,1.161406416362524,0.9381357133761048,-1.6282837772689758
1740240344319944000,0.90594384765625,1.4264485148906707,1.0412550193279981,-1.5178792827449739
1740240344330008000,0.916008056640625,1.7118284680485725,1.0659431781217454,-1.4317232404232025
1740240344340071000,0.92607080078125,1.900446667587757,1.0719339429691432,-1.3287912737369536
1740240344350134000,0.936134033203125,1.9393045137703417,1.07487730294466,-1.2435386099956929
1740240344360198100,0.9461982421875,2.070908448189497,1.173465395207703,-1.0850938687935472
1740240344370261000,0.956260986328125,2.168511913329363,1.26839993339926,-0.971086746667698
1740240344380323800,0.96632373046875,2.2060271127313373,1.1757266181379555,-1.0335236944235862
1740240344390388000,0.976387939453125,2.1546482231497763,1.0628066336616873,-1.1325682982824743
1740240344400451000,0.986451171875,2.129340763413906,1.0191372955441473,-1.170712589368224
1740240344410514000,0.996513916015625,1.9252350718855857,1.1726298211663961,-1.0887549485843628
1740240344420578000,1.006578125,1.7517594964206218,1.201822890163958,-0.9893922186870128
1740240344430641000,1.016640869140625,1.6041186194360255,1.352590082475543,-0.7136747046265751
1740240344440703700,1.026703857421875,1.640697999292612,1.4337582533821462,-0.45236799323447047
1740240344450768000,1.036767822265625,1.7721084569662808,1.55602094348222,-0.1610411143708974
1740240344460831000,1.0468310546875,1.9472884982615708,1.6884478847220539,0.07130648290999234
1740240344470893800,1.056893798828125,2.0609008489161726,1.7629817321807144,0.16393120978921652
1740240344480958000,1.0669580078125,2.1583833180248737,1.7498542473211884,0.10630568090304732
1740240344491020800,1.077020751953125,2.231771210318804,1.5684858727797866,-0.011011588684096931
1740240344501084000,1.087083984375,2.235330948626995,1.4504624276846647,-0.06838621154911816
1740240344511148000,1.09714794921875,2.2046470565497875,1.437663736388087,0.011476137455925345
1740240344521211000,1.1072109375,2.1686744104146958,1.4476941320151089,0.2319726264886558
1740240344531274000,1.11727392578125,2.1295389163345098,1.445176303975284,0.527175981459394
1740240344541337900,1.127337890625,2.032246416839957,1.5572811726763844,0.7815754707463085
1740240344551401000,1.13740087890625,1.9831921708136795,1.5803683260142802,0.942652314017713
1740240344561464000,1.147464111328125,1.9007997188091277,1.5822829274639487,1.0720356497779489
1740240344571528000,1.15752783203125,1.8731927499592302,1.4930404634341596,1.1955654372043907
1740240344581590800,1.1675908203125,1.6918921799570321,1.4707617038697003,1.273217270553112
1740240344591654100,1.177654052734375,1.715382361137867,1.4545809689193963,1.2275244637839495
1740240344601718000,1.187718017578125,1.9288538469046352,1.461978385694325,1.2311337403222917
1740240344611780900,1.19778076171875,2.099655819246173,1.469227626170218,1.3100833583965896
1740240344621844000,1.207843994140625,2.2818957159250974,1.5140890966817735,1.416532539423555
1740240344631907800,1.217907958984375,2.391157470154762,1.5455255606919527,1.5202451350934802
1740240344641971000,1.227970947265625,2.4212416427731513,1.6670055759817362,1.7164276324070988
1740240344652034000,1.238033935546875,2.5438410174816846,1.7621391438767313,1.8608305503837763
1740240344662098000,1.248097900390625,2.6805232780784367,1.7536720520436764,1.9226953242748974
1740240344672160800,1.258160888671875,2.776358564502001,1.8060159872651098,2.0497303433433176
1740240344682224000,1.26822412109375,2.649187059572339,1.8616499039426444,2.1784829799845813
1740240344692288000,1.2782880859375,2.329617836564779,1.941143127374351,2.2894094525560735
1740240344702350800,1.288350830078125,1.9637819524228572,2.069632729165256,2.406498101019114
1740240344712414000,1.2984140625,1.8337194022268055,2.0217747071862218,2.4755332049310206
1740240344722477800,1.308477783203125,1.8230349266052246,1.8590107876107096,2.534685066601634
1740240344732541000,1.318541015625,1.8305764280259609,1.797469984976947,2.605065009251237
1740240344742604000,1.32860400390625,2.3351094197183846,1.8473638966977595,2.8468051426470278
1740240344752668000,1.33866796875,2.970316956025362,1.90978498929739,3.20389365670979
1740240344762731000,1.34873095703125,3.221363262426853,1.9497376449793575,3.461523433154821
1740240344772794000,1.358794189453125,3.360249755069613,1.9853163233608007,3.722857909336686
1740240344782857000,1.36885693359375,3.2939263943344352,2.145086321817338,4.075012474128604
1740240344792921000,1.378921142578125,2.981243423709273,2.2825869130596517,4.404823397426307
1740240344802984000,1.38898388671875,2.833949752727151,2.36935947984457,4.775806581328809
1740240344813047000,1.399047119140625,2.881519897675514,2.35395498996377,5.049999077779054
1740240344823111200,1.409111083984375,3.181248109659552,2.331210658714175,5.219624407556653
1740240344833173800,1.419173828125,3.589925356662273,2.359275308203697,5.623941121262312
1740240344843236600,1.429236572265625,3.237721107509732,2.4359324314266444,6.163287652182579
1740240344853300500,1.439300537109375,2.3079531172454355,2.597779820679128,6.4715609896719455
1740240344863363800,1.44936376953125,1.2724316731333731,2.7596222414955496,6.401751540386677
1740240344873426700,1.4594267578125,0.28598084166049953,2.773016268336773,6.17727292291522
1740240344883490600,1.469490478515625,-0.03364098831713199,2.6195427396759388,5.833921257781982
1740240344893553700,1.4795537109375,-0.17414777563810346,2.363770573796332,5.460940178060532
1740240344903616800,1.48961669921875,-0.7660510077476501,2.073254426793754,5.085956526345014
1740240344913680600,1.4996806640625,-1.3157973521292208,1.8669760674014686,4.755128242698311
1740240344923743700,1.50974365234375,-2.058715321570635,1.5683958564087748,4.460263252836466
1740240344933806600,1.519806640625,-2.847500139173865,1.1714162075929344,4.255966130389273
1740240344943870700,1.52987060546875,-3.8250849426239726,1.057249291795492,4.044602722817659
1740240344953933800,1.539933837890625,-4.715998009315133,1.0761974456325172,3.6998596033260225
1740240344963996700,1.54999658203125,-5.442087009030581,0.9511891100861132,3.3697397602096197
1740240344974060800,1.560060791015625,-6.4117965490609405,0.8958560760512948,3.0014167354270813
1740240344984123600,1.57012353515625,-7.515090968194603,0.7860325962856411,2.475939739905298
1740240344994186800,1.580186767578125,-7.822702042382955,0.620615385722369,2.2230866763427852
1740240345004251000,1.5902509765625,-8.221325512883066,0.6230568605903536,2.182090356826782
1740240345014313700,1.600313720703125,-8.846185842698812,0.7031941540792584,2.192991397808492
1740240345024376600,1.61037646484375,-9.530027938315271,0.47527087604664264,1.8533967471212147
1740240345034440700,1.620440673828125,-10.553850176805257,0.05246427366547286,0.9861880888834595
1740240345044503800,1.63050390625,-11.260731202703713,-0.48117925984021276,0.12159253575354814
1740240345054566700,1.640566650390625,-11.368543927168846,-0.8628405261561274,-0.66702861572057
1740240345064630800,1.650630859375,-10.951375330674647,-1.132810436475277,-1.33242553858608
1740240345074693600,1.660693603515625,-10.542675287318229,-1.3047671318098901,-1.8923714976817367
1740240345084756700,1.6707568359375,-10.23834396545291,-1.4257267764873802,-2.2093246929720043
1740240345094820900,1.68082080078125,-9.735780228006838,-1.4689229441352187,-2.44081698859781
1740240345104883700,1.6908837890625,-9.168551418426633,-1.637288775371015,-2.63767782356441
1740240345114946600,1.700946533203125,-8.486399760115146,-1.6864518885992466,-2.8223855716615915
1740240345125010700,1.7110107421875,-7.786298019093275,-1.6672271097779272,-3.0445661413237453
1740240345135073500,1.721073486328125,-7.440487854892015,-1.612085068270564,-3.2259424069106575
1740240345145136600,1.73113671875,-6.966517759245634,-1.5818712779231368,-3.472596323572099
1740240345155200800,1.74120068359375,-6.379246278589964,-1.5906819224968551,-3.710309977930784
1740240345165263600,1.751263671875,-6.051124915814399,-1.8232807180598376,-3.799282392847538
1740240345175326500,1.761326416015625,-5.867443588155508,-2.051180396021157,-3.8429441321805116
1740240345185390600,1.771390625,-5.485735012099147,-2.147137847519666,-4.137489680829644
1740240345195453700,1.78145361328125,-5.071487271487713,-1.8986366955563425,-4.329273066401481
1740240345205516500,1.7915166015625,-4.823955695208907,-1.4461530400529503,-4.297001612871885
1740240345215580700,1.80158056640625,-4.515784064528345,-0.931025516044721,-4.16999523537606
1740240345225643500,1.8116435546875,-4.480924348071217,-0.4119860062245279,-3.9991143525794146
1740240345235706600,1.82170654296875,-4.606171022418141,0.025528774336352943,-3.7083392623797056
1740240345245770800,1.831770751953125,-4.2583939420580865,0.26564035668224095,-3.371574574421346
1740240345255833600,1.84183349609375,-3.606326456364989,0.538152937221527,-3.142191818295419
1740240345265896400,1.851896484375,-2.9065216524630784,0.7649063677571714,-3.283956204462051
1740240345275959800,1.861959716796875,-1.9974030669957399,0.9649256667546927,-3.3414500697925686
1740240345286023700,1.872023681640625,-1.3674030362039804,1.1451659140489996,-3.288738178041577
1740240345296086800,1.882086669921875,-0.7999129453390836,1.2149755094647408,-3.4215479811191556
1740240345306149600,1.892149658203125,-0.17992343643009662,1.283740564263612,-3.525897997909784
1740240345316213500,1.902213623046875,0.5801829836994409,1.2029982175536453,-3.634891164331138
1740240345326276900,1.91227685546875,1.235833004054427,1.1666498699739574,-3.641177404993772
1740240345336339700,1.922339599609375,1.7225240495860576,1.2901155061230063,-3.327413361133635
1740240345346403600,1.932403564453125,2.0424118370234967,1.4789090622290968,-2.7752058873355385
1740240345356466700,1.942466796875,1.5877122590363024,1.8522034456834195,-2.3188204020880163
1740240345366529800,1.95252978515625,0.8118769393771886,2.2668296642184256,-2.0457596861466762
1740240345376593700,1.96259375,0.7199322306513786,2.5310382345318794,-1.8568480566188692
1740240345386656800,1.97265673828125,1.0374041891187429,2.446905076339841,-1.930256699439883
1740240345396719600,1.9827197265625,1.7249299416840076,2.3694889514431354,-2.0075623496994375
1740240345406783500,1.992783447265625,2.4232342778950926,2.453464288724959,-2.0367332068651915
1740240345416846800,2.002846923828125,3.381590064740181,2.3846716152667997,-2.128352336898446
1740240345426909700,2.01290966796875,4.200726181465387,2.246208024211228,-2.116432474263012
1740240345436973600,2.0229736328125,4.510092574888468,2.150955506111681,-1.9505800871528685
1740240345447036700,2.03303662109375,4.471694747433066,2.1438997423812745,-1.694850152979791
1740240345457099800,2.043099853515625,4.255157444354891,2.149868879918754,-1.4396481882035732
1740240345467163600,2.05316357421875,3.7790322165012356,2.0646654621466993,-1.2604885757528246
1740240345477226800,2.063226806640625,3.612794191074371,2.059574568748474,-0.8923857695922255
1740240345487289600,2.07328955078125,3.9876241135329007,2.1288307680651544,-0.7431608382865786
1740240345497353500,2.083353515625,4.019194140794873,2.057945798502862,-0.80303429223001
1740240345507416800,2.093416748046875,3.502199726936221,1.8855407748788595,-0.9504256514329462
1740240345517479700,2.103479736328125,2.6253455807358024,1.777339343357086,-1.1199735320601611
1740240345527542500,2.11354248046875,2.2463158684998747,1.6579720824375748,-1.157857199448347
1740240345537606700,2.123606689453125,1.9313082543194293,1.5405010105282066,-1.0279594844251871
1740240345547669800,2.133669677734375,1.9285878894448278,1.850811406803131,-0.7590062038026749
1740240345557732600,2.143732666015625,2.2894781338781116,2.115916341434419,-0.6469304150655866
1740240345567796700,2.153796630859375,2.4734148976027965,2.172122212781012,-0.7087268729608506
1740240345577859600,2.163859619140625,2.9839415767520663,2.2286869805678724,-0.842924988591671
1740240345587922700,2.173922607421875,3.254842338180542,2.217372974871099,-1.1027902690038085
1740240345597986800,2.18398681640625,3.745898008662462,1.5882798297911882,-0.5264279395710677
1740240345608049700,2.194049560546875,3.647614160043001,0.9918789940014481,-0.07151484669735655
1740240345618112500,2.204112548828125,3.186170953014493,1.0391191763430834,-0.0543723357765004
1740240345628176600,2.2141767578125,2.62872645534575,1.2627572513371705,-0.6763647454731166
1740240345638239700,2.22423974609375,1.9316250651836395,1.5027894117712974,-0.967741308697313
1740240345648302600,2.234302490234375,1.2238812849760055,1.735916030600667,-0.5719730449652299
1740240345658366700,2.24436669921875,1.1876818443477153,1.9090306637987493,-0.836610106356442
1740240345668429600,2.2544296875,1.5294441944628954,1.9334724466159938,-1.0686414772950112
1740240345678492700,2.26449267578125,1.5703484517812727,2.0269640925228596,-1.3483607743427157
1740240345688556500,2.274556640625,1.6068226176977156,2.330580544117093,-1.4453987145543097
1740240345698619600,2.28461962890625,0.8884382010102272,2.112696794866025,-1.6253572222977877
1740240345708682800,2.294682861328125,0.890430251610279,1.824483079586923,-1.8176118786431847
1740240345718745600,2.30474560546875,1.2499164744645357,1.549142874406278,-1.9877550948150455
1740240345728809500,2.3148095703125,2.1717443193793295,1.2800798497989774,-1.5372592521280048
1740240345738872800,2.324872802734375,2.3372160366088153,1.10887660318017,-0.9819063199110328
1740240345748935700,2.334935791015625,2.107175108835101,1.2883034882649778,-1.0717128475643694
1740240345758999600,2.34499951171875,1.7720815689593552,1.4580240951105952,-1.3238980948679149
1740240345769062700,2.355062744140625,1.288579090335965,1.360852007125318,-1.4296461418882012
1740240345779125800,2.365125732421875,1.2888561537116765,1.1475932873263954,-1.5600433308660984
1740240345789189600,2.375189697265625,1.4439245503485203,0.884296278899908,-1.645649484220147
1740240345799252700,2.385252685546875,1.5841595349907873,0.6116971891209483,-1.7019059167101978
1740240345809315600,2.395315673828125,1.475489901435375,0.5062921103194356,-1.8303968336753547
1740240345819379500,2.40537939453125,1.154323180103302,0.5504951169222593,-2.028723211149871
1740240345829442800,2.41544287109375,0.5840256306022406,0.5929445578560233,-2.3863385255657135
1740240345839506000,2.425505859375,0.013064648756384849,0.6392813616171479,-2.7218428381994366
1740240345849569800,2.43556982421875,-0.47048049996495245,0.676978347326815,-3.025466304056346
1740240345859632600,2.445632568359375,-0.6501321337163448,0.4855772390708327,-3.50381446865648
1740240345869696000,2.455696044921875,-0.8875812919199466,0.11315467001497745,-4.106431402482092
1740240345879758800,2.4657587890625,-0.7638350852638482,-0.212431621325016,-4.553392787432671
1740240345889822700,2.47582275390625,-0.6351105056732893,-0.5376984714522958,-4.8272979913741345
1740240345899885800,2.4858857421875,-0.5741846200674772,-0.8277545997276902,-4.716341708186269
1740240345909949000,2.495948974609375,-1.082160445690155,-0.865478473444283,-4.345254187126457
1740240345920013000,2.506012939453125,-1.472045313939452,-0.8674266849026083,-3.9426512916013596
1740240345930076000,2.516075927734375,-1.4480904378563164,-0.8255532902911304,-3.5321526743903755
1740240345940138800,2.526138671875,-1.1120271761655807,-0.6787476950868964,-3.6016865216046567
1740240345950203000,2.536202880859375,-1.0041600911647082,-0.7501900062710046,-3.4998768369466062
1740240345960266000,2.546265869140625,-0.7354933723986148,-0.827156341573596,-3.5075697295367716
1740240345970328800,2.556328857421875,-0.7545961322754621,-0.878966023787856,-3.5937048752009866
1740240345980393000,2.56639306640625,-1.2407014868736266,-0.9744508893385528,-3.4657471883296966
1740240345990455800,2.576455810546875,-1.9599165091663597,-0.8869713433280587,-3.1332144388526677
1740240346000519000,2.586518798828125,-3.02392053591907,-0.7232841714277863,-2.58649270298928
1740240346010583000,2.5965830078125,-3.347842108917236,-0.39399434939473865,-2.314744677081704
1740240346020646000,2.60664599609375,-3.306759572422504,-0.26898148380368947,-1.9661931052178143
1740240346030708700,2.616708740234375,-2.8202485596328972,-0.3571890518277883,-1.7637705444708465
1740240346040772900,2.62677294921875,-2.3003192613661287,-0.5159674088984727,-1.4902322741456329
1740240346050836000,2.6368359375,-2.2099568533957004,-0.5049351427525282,-1.4211132913425564
1740240346060898800,2.64689892578125,-2.1535382160812615,-0.32655221376270055,-1.0963513950627297
1740240346070962000,2.6569619140625,-2.5009388643443584,-0.3622805297479033,-0.5491146954145282
1740240346081025800,2.66702587890625,-2.9777228483676907,-0.3634852293625474,-0.2801934173654765
1740240346091089000,2.6770888671875,-3.2543986860662697,-0.5446422992408275,0.07434497382305562
1740240346101152000,2.687152099609375,-3.1738620910614728,-0.6750941410154104,0.6035888475976884
1740240346111215900,2.6972158203125,-3.1006366958528755,-0.7742723081260919,0.9585974135812372
1740240346121278700,2.70727880859375,-2.993228460535407,-0.8606979611694813,1.180084228825569
1740240346131341800,2.717341796875,-2.9705583635658024,-1.0204179830044506,1.349122990886867
1740240346141405700,2.72740576171875,-3.072539897659421,-1.3389075940817594,1.4088839243665336
1740240346151468800,2.73746875,-3.603001695856452,-1.5651321784377097,1.5506025716952978
1740240346161532000,2.747531982421875,-4.053635339578986,-1.5154098238915203,1.8493280363775788
1740240346171595800,2.757595703125,-4.270516341528296,-1.3543401410132645,2.247161087152362
1740240346181658600,2.76765869140625,-4.4847173106133935,-1.1690139687567949,2.618406721383333
1740240346191722000,2.777721923828125,-4.400997993919253,-1.0060416671276091,2.8815152215003965
1740240346201785900,2.787785888671875,-4.309140963476896,-0.9923182622015476,2.9598776873365042
1740240346211848700,2.7978486328125,-4.186580167213082,-0.9013473669439553,2.9439462509721515
1740240346221911800,2.807911865234375,-3.958734119135141,-0.9033680591166019,3.0486352904587983
1740240346231975000,2.817974853515625,-3.5351293521136045,-0.8024076847642659,3.168967304757237
1740240346242038800,2.828038818359375,-3.0209762991607185,-0.6587345423668622,3.54643926615715
1740240346252102000,2.838101806640625,-2.7355875781744716,-0.35008711086809635,4.074742425015568
1740240346262164700,2.848164794921875,-2.8296219526559114,0.013717559707164763,4.417268160718679
1740240346272228900,2.858228759765625,-2.9901334171295164,0.39000586428046224,4.704638995432854
1740240346282292000,2.8682919921875,-3.0908734267294404,0.4866512980431318,5.273241431453823
1740240346292354800,2.878354736328125,-2.883556371939182,0.6352513754487037,5.340454434505105
1740240346302419000,2.8884189453125,-2.377188566035032,1.0170306786537169,5.223764576101303
1740240346312481800,2.898481689453125,-2.0434359193742275,1.4587462719053028,5.210718047523498
1740240346322545000,2.908544921875,-2.0069284357100723,1.579158365702629,5.817236080440878
1740240346332609000,2.918609130859375,-1.54439275726974,1.8821224908679723,6.2103521856963635
1740240346342672000,2.928671875,-1.0488818609446287,2.1688661335945127,6.270926773646473
1740240346352734700,2.938734619140625,-1.0777870529115199,2.280251455849409,6.048887366020679
1740240346362797800,2.9487978515625,-0.6050684186309576,2.2237276045948264,5.4333209342509505
1740240346372862000,2.958862060546875,-0.1836754824399948,2.0852835950225592,4.9928024418294426
1740240346382924800,2.9689248046875,0.05939911442995071,2.042344032484293,4.719690434092283
1740240346392987600,2.978987548828125,-0.4820236382424831,2.308731700402498,5.432473377510905
1740240346403051800,2.9890517578125,-0.20670798298120496,2.921704024025798,5.983201718667149
1740240346413115000,2.999114990234375,0.5103519071042537,3.173489750617742,5.595500039675832
1740240346423177700,3.009177734375,0.4299140962988138,3.0587527798473833,5.317124412322044
1740240346433241900,3.019241943359375,0.4657306750893593,3.01336465511322,5.259834252870083
1740240346443304700,3.0293046875,0.8823644340544938,3.00644508498311,5.2599008883655065
1740240346453368000,3.0393681640625,1.389707222470641,2.859881481841206,5.070060453554988
1740240346463431000,3.049430908203125,1.4023469238132238,2.6047090354204174,4.677300614391267
1740240346473494800,3.059494873046875,1.5241384892702101,2.7323148401141166,4.348694390708208
1740240346483558000,3.069557861328125,1.7334253828287123,2.6448329560160637,4.019437301900982
1740240346493621000,3.07962109375,2.0884195549607276,2.260652436888218,3.4485178211092946
1740240346503684900,3.089684814453125,2.178117946064472,1.8091940327793359,2.800666784067452
1740240346513748000,3.099748046875,1.7043109320253134,1.4459762221813202,2.528942723557353
1740240346523810800,3.109810791015625,0.8628969325184822,1.2915788566738367,2.5149615444779396
1740240346533874700,3.119874755859375,0.08777882121801375,1.4978122078806162,2.712813436308503
1740240346543938000,3.12993798828125,-0.646752428150177,1.8381231901437043,2.8693384614944457
1740240346554001000,3.1400009765625,-0.805498051995039,2.2062696893155573,2.9995386665955186
1740240346564064800,3.150064697265625,-0.4265256229043007,2.4729431884378195,3.0845310719653964
1740240346574127900,3.1601279296875,0.11690905411243438,2.3200755167156455,2.8559815517932177
1740240346584190700,3.170190673828125,0.6876777282565831,1.9532155502229929,2.2615689672112462
1740240346594253800,3.18025390625,0.8759574896216392,1.6005846000909805,1.7429288319721816
1740240346604318000,3.19031787109375,0.6977765129446983,1.4026947143375872,1.5687144208386539
1740240346614380800,3.200380859375,-0.02488485040962696,1.3623586122959852,1.5715630882680416
1740240346624443600,3.210443603515625,-0.6924030032128096,1.7092022111982106,1.7021435248583554
1740240346634507800,3.2205078125,-0.7513432679593562,2.0656834070175885,2.006441236715019
1740240346644571000,3.23057080078125,-0.8695230726599693,2.312730414649844,2.30190156212151
1740240346654633700,3.2406337890625,-0.8177671664595604,2.3010265328526494,2.318784015600383
1740240346664697900,3.25069775390625,-0.6373027550205588,2.2912983350425957,2.0440636958837506
1740240346674760700,3.2607607421875,-0.7639467289447784,2.242581942668557,1.7616586668834089
1740240346684823800,3.27082373046875,-0.7499222952455282,2.377003857117891,1.5414230938091873
1740240346694888000,3.280887939453125,-0.7075681313797831,2.303045471459627,1.439512286864221
1740240346704950800,3.29095068359375,-0.7744169772937893,1.987507111403346,0.9003905046105384
1740240346715013600,3.301013671875,-0.6623100627660751,1.5431179150283336,0.33198739055395127
1740240346725077000,3.311076904296875,-0.4246843789517879,1.4402321255713701,0.04606090942919254
1740240346735140900,3.321140869140625,-0.6092047877833247,1.2980693877369165,0.17743863387703895
1740240346745203700,3.33120361328125,-0.6914382498338818,1.4740513930648564,0.2264870346844196
1740240346755266800,3.341266845703125,-1.0135963202908636,1.4618249486982822,0.265373522439599
1740240346765330700,3.35133056640625,-1.4736872359275817,1.7300976997107267,0.5963181259423495
1740240346775393800,3.361393798828125,-1.4126532137721777,2.080602159208059,0.5908350183561444
1740240346785457000,3.371456787109375,-1.448104466381669,1.969494484850764,0.5368740033268928
1740240346795519700,3.381519775390625,-1.5629618486613035,1.791118277862668,0.6391290936648846
1740240346805584000,3.391583984375,-1.601896559472382,1.4094997181773186,0.04422258808612823
1740240346815647000,3.40164697265625,-1.8491557485505938,0.8476526016354561,-0.9119266286253929
1740240346825709800,3.411709716796875,-1.8250716931298374,0.2737052974551916,-1.7744471290469168
1740240346835775200,3.421775146484375,-1.369611652164161,-0.14241115963757037,-1.9520593659251928
1740240346845838000,3.431838134765625,-1.2448995230853557,-0.23855448909699917,-1.3065069612145424
1740240346855901200,3.441901123046875,-1.2606722617566586,0.3154553579479456,-0.5737257703840732
1740240346865965000,3.451965087890625,-1.611602253189683,0.9376613738626242,0.02636193722486496
1740240346876028200,3.462028076171875,-2.2512422189861536,1.2192314133435487,0.24603461571931837
1740240346886091300,3.47209130859375,-2.5558514810100195,1.3018296170532702,0.17713643606007098
1740240346896155100,3.482155029296875,-2.740730494020879,1.3002537460386752,0.17298457707762718
1740240346906218000,3.492218017578125,-2.604999542799592,1.2829086434841155,0.03956453314721584
1740240346916281300,3.50228125,-2.4023317751199005,1.0928349844396115,-0.183936179202795
1740240346926344200,3.51234423828125,-1.8554174392938614,1.0480167685478925,-0.6802467014729976
1740240346936408300,3.522408203125,-1.485018777281046,0.6579021831959485,-0.8945558071076869
1740240346946471200,3.53247119140625,-1.1311463026553392,0.4487754486352205,-0.7579284915685653
1740240346956534300,3.5425341796875,-0.9765630591869354,0.5902145483702421,-0.5852116255164146
1740240346966598400,3.552598388671875,-1.0355535928159951,0.6798334444969892,-0.3642050680696964
1740240346976661200,3.5626611328125,-1.0505518399834632,0.7496867329239845,-0.16488427273035047
1740240346986724000,3.57272412109375,-1.300832422709465,0.9420634082138538,0.09621113399863243
1740240346996788200,3.582788330078125,-1.6578554703205823,1.191289513450861,0.20885551640391348
1740240347006851000,3.59285107421875,-1.9087854568660259,1.253197980353236,0.2218745724529028
1740240347016914200,3.6029140625,-1.9680822799652813,1.0949626441180704,0.04911211369335651
1740240347026977000,3.61297705078125,-1.7305989272311328,0.9235504309237003,-0.10940905374586582
1740240347037041200,3.623041259765625,-1.6725696398496628,0.8760504286020994,-0.03743745799064636
1740240347047104000,3.63310400390625,-1.6372463975340128,1.0326613785058258,0.156936528596282
1740240347057167000,3.6431669921875,-1.367866562062502,1.0363754305928945,0.2714829452306032
1740240347067231200,3.653231201171875,-1.111831069071591,0.8582418001890182,0.13417349264621733
1740240347077294000,3.663294189453125,-0.9653855393514037,0.7403267839044332,0.01834054333269596
1740240347087357200,3.673357177734375,-0.8388251520574093,0.5445505293041467,-0.07139934882521629
1740240347097421000,3.683421142578125,-1.001610991203785,0.5818798507452011,0.026463644033670426
1740240347107484200,3.693484130859375,-1.1698258696615695,0.7126695461720228,0.21434651503562926
1740240347117547300,3.70354736328125,-1.6028525450229645,0.8092220409542321,0.2588455819755792
1740240347127610000,3.713610107421875,-1.8530524637281893,0.8068348535567521,0.13559271179437637
1740240347137674000,3.723674072265625,-1.7714885715022681,0.7958955263912677,0.0333007965773344
1740240347147737300,3.7337373046875,-1.653068820565939,0.7955214323818683,0.004125555497407913
1740240347157800200,3.74380029296875,-1.5436661965608596,0.8964104950636624,0.0007797522008419036
1740240347167864000,3.753864013671875,-1.4444874449282883,0.9486170676410197,0.02810381245613098
1740240347177927200,3.76392724609375,-1.4080866365090012,0.855349585878849,0.0776554866105318
1740240347187990300,3.773990234375,-1.427128898370266,0.7707558244377374,0.050100540208816526
1740240347198053000,3.78405322265625,-1.3625614413917064,0.822639156410098,-0.006432663396000861
1740240347208117200,3.7941171875,-1.1646239171043038,0.8896464077562093,-0.057197804993391034
1740240347218180000,3.80418017578125,-0.80731445376724,0.8944663752585649,0.01783084024488926
1740240347228243200,3.8142431640625,-0.5377946253031491,0.9701625444948673,0.12946750691235065
1740240347238307300,3.824307373046875,-0.5205705187797546,1.1075398016184568,0.10704875435531139
1740240347248370200,3.8343701171875,-0.6133733056396246,1.1753630455225705,0.03820435070991516
1740240347258433000,3.84443310546875,-0.8328194819018244,1.1304209109902381,-0.1995622028797865
1740240347268497200,3.8544970703125,-0.8717255511403084,0.9911807826042175,-0.5275111316978931
1740240347278560300,3.864560302734375,-0.8183943584471941,0.740987293639779,-0.8579489547222853
1740240347288623000,3.874623046875,-0.8426742287009954,0.54210138258636,-1.2363713487148285
1740240347298686200,3.884686279296875,-0.836703337597847,0.4065355587989092,-1.4636504105597734
1740240347308750000,3.89475,-0.7937655286252498,0.23812837263941763,-1.6330372554063797
1740240347318813200,3.904813232421875,-0.7053010632306337,0.3300678206682205,-1.5935200685322284
1740240347328876300,3.914876220703125,-0.8525234225422144,0.5460919135272503,-1.3964163647204637
1740240347338940200,3.924940185546875,-0.925339652428031,0.7346960845410824,-1.2851894478976726
1740240347349003000,3.9350029296875,-0.9248603444784879,0.7401812379539012,-1.32600076623559
1740240347359066400,3.94506640625,-0.9720146021023393,0.6427227342426777,-1.3876064507991075
1740240347369130200,3.955130126953125,-0.8243526823297143,0.47946460140943525,-1.490385857272148
1740240347379193000,3.965193115234375,-0.5209861138433217,0.17388357174396513,-1.6408634189873932
1740240347389256200,3.975256103515625,-0.4392103324323892,0.08981237287223338,-1.6486907516121863
1740240347399320000,3.985320068359375,-0.28834757079184054,0.16297639328241348,-1.5828151346445083
1740240347409383200,3.995383056640625,-0.6001093349188565,0.21294424702227113,-1.3510779243469238
1740240347419446300,4.0054462890625,-0.6896446444153785,0.32989187957942484,-1.1209925729095935
1740240347429510100,4.01551025390625,-0.48288288542032237,0.49156362000405784,-1.0071879145532845
1740240347439573200,4.0255732421875,-0.18124153329133985,0.6277998903989791,-0.9228858295351267
1740240347449636000,4.035635986328125,0.20304127716720102,0.6313391704410314,-0.9853694659769534
1740240347459700200,4.0457001953125,0.5737503203034401,0.42969256250262255,-1.2046049220979214
1740240347469763300,4.055763427734375,0.7264087331891059,0.20095453402101993,-1.4753817648857832
1740240347479826200,4.065826171875,0.6205389594852924,0.095092943623662,-1.7834090186595917
1740240347489889000,4.075888916015625,0.3454407463669777,0.05326981789469719,-2.156981634533405
1740240347499953200,4.085953125,0.1610270127803087,-0.20558394738733768,-2.660716753846407
1740240347510016300,4.096016357421875,0.18380992247462272,-0.3170312289625406,-3.0712188781887293
1740240347520079000,4.1060791015625,0.12002514030635356,-0.31272914785444733,-3.3708126501381397
1740240347530143200,4.116143310546875,-0.02993161240518093,-0.4393336665511131,-3.8560143338948487
1740240347540206000,4.1262060546875,-0.18807810131311414,-0.6261866099834442,-4.3293888017356394
1740240347550269200,4.136269287109375,-0.3720166186034679,-0.5036369196355343,-4.386279148215055
1740240347560333300,4.146333251953125,-0.3919815482676029,0.014651625686883926,-4.111445138990879
1740240347570396200,4.156396240234375,-0.39217034883797164,0.8035650381058455,-3.579479950493574
1740240347580459000,4.166458984375,-0.4614765247762203,1.2927303647965191,-3.159666684709489
1740240347590522400,4.1765224609375,-0.02293196277618408,1.1467711572885513,-3.4253619864493605
1740240347600586200,4.186586181640625,0.154754508382082,0.6769254480957985,-4.103991900375485
1740240347610649000,4.196649169921875,-0.14705635509490966,0.3089274174839258,-4.818820378147065
1740240347620712200,4.206712158203125,-0.4155523934692144,0.25031799212694167,-5.174252649435401
1740240347630776000,4.216776123046875,-0.1674889022707939,0.39272564463317394,-5.739414589613676
1740240347640839200,4.226839111328125,0.5844727898478508,0.3110971627384424,-6.550664337003231
1740240347650902300,4.23690234375,1.2793798848360776,0.19640344658792017,-7.025914535588026
1740240347660965000,4.246965087890625,1.3930126937568188,0.37650691576004025,-7.167265957039594
1740240347671029000,4.257029052734375,0.8649877673178911,1.380240305945277,-6.221165840655565
1740240347681092400,4.26709228515625,0.7149731469392776,2.5676778201431034,-4.828641807198524
1740240347691155200,4.2771552734375,1.1487468412756918,2.7101673057138917,-4.278872081941366
1740240347701219000,4.287218994140625,1.8682804279983043,1.8795096780210732,-4.69407083966732
1740240347711282200,4.2972822265625,2.20378430224061,1.3466694602549076,-5.156960738372803
1740240347721345300,4.30734521484375,1.9166314941912888,1.2766659497022628,-5.658277690628171
1740240347731409200,4.3174091796875,1.0204220746576786,1.488894157409668,-5.778747652092576
1740240347741472300,4.32747216796875,0.24987024835944174,1.7621470349222421,-5.320383121857047
1740240347751535000,4.33753515625,0.0007692308068275451,1.9664123009264467,-4.891449853289127
1740240347761598200,4.34759814453125,-0.39604689801037307,2.180346728029847,-4.4938948888033625
1740240347771662300,4.357662353515625,-0.6337433089733123,2.423935119640827,-3.769999892000854
1740240347781725200,4.36772509765625,-0.41008419119119643,2.646320564225316,-2.910041058760881
1740240347791788000,4.3777880859375,-0.2385878068447113,2.648465175038576,-2.3782680318348106
1740240347801852200,4.38785205078125,-0.31559505867958065,2.3728122506469487,-2.5685578178480264
1740240347811915300,4.397915283203125,-0.5053893162608146,1.7159540235459803,-3.5178257506132122
1740240347821978000,4.40797802734375,-0.5565250447362661,1.1558546274542807,-4.736363920995593
1740240347832039400,4.418039306640625,-0.7189514029204845,0.9598767128020524,-5.302124411588907
1740240347842103600,4.428103515625,-0.6974456735551356,1.032675991553068,-5.148182388633489
1740240347852166400,4.43816650390625,-0.21255261735618114,1.334866794258356,-4.744426523680985
1740240347862229200,4.448229248046875,-0.6637900721907616,1.6123282293766736,-4.0973996625036
1740240347872293400,4.45829345703125,-1.4263812948733567,1.5788064835250377,-4.243623073905706
1740240347882356500,4.4683564453125,-1.6829752985298632,1.154008122804761,-5.063258372324705
1740240347892419300,4.47841943359375,-1.935738345721364,0.9452397001624107,-5.3430643247425555
1740240347902483500,4.4884833984375,-2.227740931889415,1.1316676961809395,-5.165153397178649
1740240347912546300,4.49854638671875,-2.5370617326050997,1.3335691556632518,-5.309985061961412
1740240347922609400,4.508609375,-2.523693132466078,1.2902116599738598,-5.117831674033403
1740240347932672500,4.518672607421875,-1.5967688411951064,1.3584393930256367,-5.102940394371748
1740240347942736400,4.528736328125,-1.248543432545662,1.4642156432271003,-5.180900416886806
1740240347952799200,4.53879931640625,-1.440079565358162,1.7120085007905959,-4.764028172990679
1740240347962862600,4.548862548828125,-1.4020172534674404,2.0877461857438084,-4.147786033916473
1740240347972926500,4.558926513671875,-1.395251997116208,2.9540064572155473,-2.040892080110311
1740240347982989300,4.5689892578125,-2.2870769179552792,3.445848309639096,-0.6763046858489513
1740240347993052400,4.579052490234375,-2.2139549831211567,2.9915052900046106,-1.2921774070888756
1740240348003115500,4.589115478515625,-1.5294313349813222,2.724499490188062,-1.1992635610699653
1740240348013179400,4.599179443359375,-1.0354992322802543,2.5624907728940247,-1.1567062758475541
1740240348023242500,4.609242431640625,-0.7216834582328796,2.8422306743383405,-0.6360165146023035
1740240348033305300,4.619305419921875,-0.7505553324520587,2.9737299793392418,-0.3084785046726465
1740240348043369500,4.629369384765625,-0.8485521808236837,2.7077485541343687,-0.24366087232530115
1740240348053432600,4.6394326171875,-1.083411907055974,2.365071719522774,-0.7564543273627757
1740240348063495400,4.649495361328125,-1.5068623602986335,2.254296345859766,-1.041173186263442
1740240348073559600,4.6595595703125,-1.6573662254989145,2.446198097114265,-0.7380436414033175
1740240348083622400,4.669622314453125,-1.994086489793658,2.6257874792844054,-0.28494331530630584
1740240348093685500,4.679685546875,-1.9218278937906026,2.5953388572677967,0.246639595875144
1740240348103748400,4.689748291015625,-1.264358256793022,2.3579843916103242,0.6862123318791389
1740240348113812500,4.6998125,-1.725701510578394,2.428556934222579,0.18382102839052675
1740240348123875300,4.709875244140625,-2.711190803542733,1.794889320833981,-0.2998772650659084
1740240348133938400,4.7199384765625,-3.1765088061779734,1.5194848182454703,-0.20055881270170212
1740240348144002600,4.73000244140625,-3.0510557956039905,1.8696818192288278,0.2899246108502149
1740240348154065400,4.7400654296875,-3.42722836484313,2.1098557262212037,1.0780781448125838
1740240348164128300,4.750128173828125,-3.6721044581770896,2.273041378340125,1.7476865478932857
1740240348174191400,4.76019140625,-3.3402824873179195,2.1697429164290427,2.048236597654223
1740240348184255500,4.77025537109375,-3.3197008870601654,2.130500454843044,2.4345763406425713
1740240348194318600,4.780318603515625,-4.037432392796874,2.152265711927414,2.5685592791527507
1740240348204381400,4.79038134765625,-4.753735327035188,2.304241110984981,2.616542096555233
1740240348214445300,4.8004453125,-5.187953258007765,2.7192016760408877,3.1041864972889424
1740240348224508400,4.81050830078125,-5.1587552205741405,3.027864889630675,4.042804148963094
1740240348234571500,4.820571533203125,-4.8263364528656005,3.254292010821402,5.0035693350374695
1740240348244635400,4.830635498046875,-4.8787201355755325,3.4355542946398256,5.800792310640215
1740240348254698500,4.840698486328125,-4.962694303813576,3.7551851847067472,6.5022530650556085
1740240348264761300,4.85076123046875,-4.555857131719589,4.005954135471582,6.649095485138893
1740240348274824400,4.860824462890625,-4.060939525112509,3.7842750855907794,6.355291402506828
1740240348284888600,4.870888671875,-3.704360714137554,3.510439147493243,6.270340498191118
1740240348294951400,4.880951416015625,-3.2574171571046113,3.5679999405801293,6.393560635146498
1740240348305014300,4.89101416015625,-2.917191515037417,3.7194481008931994,6.4699143915086985
1740240348315078400,4.901078369140625,-2.878869675427675,3.689110830296576,6.712789081892371
1740240348325141500,4.9111416015625,-2.6644214535832402,3.742915777981281,7.107453001111746
1740240348335204400,4.921204345703125,-2.3737223512291905,3.9404005900651216,7.325439333954453
1740240348345267500,4.931267333984375,-2.4467747279584406,4.058358276447653,6.9819204955607646
1740240348355331300,4.941331298828125,-2.5690502775400876,4.086832675781846,6.551100390332937
1740240348365394400,4.95139453125,-1.8086428286373615,4.136594193294644,6.269131122401356
1740240348375457500,4.96145751953125,-0.49542497160732746,4.12235290197432,5.903458319866657
1740240348385521400,4.971521484375,0.7620546315878629,3.7457162223547695,5.154853536960482
1740240348395584300,4.981584228515625,1.7756208490014076,3.425740172111988,4.551730991700292
1740240348405647600,4.991647705078125,2.403379238346219,3.0468595129579303,3.823947463026643
1740240348415710500,5.00171044921875,2.7464365967079996,2.4566782823354005,3.1244641461640597
1740240348425774300,5.0117744140625,3.2372347852975127,2.0214491284936664,2.8385896874874827
1740240348435837400,5.02183740234375,3.1876126762554047,2.0909575490057466,2.5504741718858477
1740240348445900500,5.031900634765625,3.625545828358829,2.6163930434733627,2.287679267762601
1740240348455964400,5.04196435546875,3.979508611616492,2.233480936846137,1.9846458767533302
1740240348466027500,5.052027587890625,4.337287446030974,2.1410949140936135,1.802075140684843
1740240348476090400,5.06209033203125,5.761849124261737,2.5607547428816555,1.76128340383023
1740240348486153500,5.072153564453125,5.410753713133931,2.804299295350909,1.931381611816585
1740240348496217600,5.082217529296875,5.29091035913527,3.504226848849654,2.309860704432428
1740240348506280400,5.092280517578125,4.705750171545148,3.8498090495139357,2.301549972204864
1740240348516343300,5.10234326171875,4.351250504931807,3.755235745850205,2.0206080014944074
1740240348526407400,5.112407470703125,4.1247365822404625,3.842572083997726,1.6869707979068158
1740240348536470500,5.122470458984375,3.4551614969074724,4.203795505908132,1.0099889434486626
1740240348546533400,5.132533447265625,2.5724235533654687,4.1425785284012555,0.008561492118239403
1740240348556596500,5.142596435546875,1.7264309938967226,3.6927550320178266,-0.6372828812763095
1740240348566660400,5.152660400390625,2.04186472453475,3.2309313012391327,-0.8135729296401143
1740240348576723500,5.162723388671875,2.628056593260169,3.1829432231396435,-0.6701542003951967
1740240348586786600,5.17278662109375,2.9344717356622216,3.159872144153714,-0.3230982739165425
1740240348596850400,5.182850341796875,2.7149574625998736,3.307595438724756,-0.1033088371746242
1740240348606913300,5.192913330078125,2.721091435310244,3.3817250892966983,0.1326312316402793
1740240348616976400,5.202976318359375,3.7559155448079107,3.210660082104802,0.06887918269783258
1740240348627039500,5.21303955078125,4.952218502506613,2.6901936082214117,-0.2792269834861159
1740240348637103400,5.223103271484375,5.238115173014998,2.224052598765492,-0.6108110539361834
1740240348647166500,5.23316650390625,5.201611781004071,2.163032020613551,-0.7575589276038109
1740240348657229300,5.243229248046875,5.651990573182702,1.9556863242506979,-1.0026647380404174
1740240348667293200,5.253293212890625,5.724004254513979,1.7524588768616318,-1.3918825206831096
1740240348677356500,5.2633564453125,4.721909863707423,1.64313574783355,-1.6720993919894098
1740240348687419400,5.27341943359375,3.5837335162848234,1.5406743212684988,-1.665484796155244
1740240348697482200,5.283482177734375,3.0840549788862464,1.3452370893642305,-1.627872419989109
1740240348707546400,5.29354638671875,3.2822318648874758,1.0298518740430473,-1.6557082291588185
1740240348717609500,5.303609375,3.509801434111595,1.1271207004010677,-1.597129491201043
1740240348727672300,5.31367236328125,3.6769741100400686,1.2193573778107762,-1.3708812337085603
1740240348737736400,5.323736328125,3.794604464164376,1.1322316136740147,-1.1068225932598112
1740240348747799300,5.33379931640625,4.187726414638758,1.0363282304503023,-1.10751737059094
1740240348757862400,5.3438623046875,4.658548275387287,0.9560478021636605,-1.1876643817562609
1740240348767925500,5.353925537109375,4.605823231893778,0.8577081317037344,-0.9374243502363562
1740240348777989400,5.3639892578125,4.9010330896705385,0.6535249910250306,-0.5988830079942942
1740240348788052200,5.37405224609375,5.474714436390996,0.48676169961504634,-0.29544015940129753
1740240348798115600,5.384115478515625,5.656818139469623,0.296004880611971,-0.24490188536234198
1740240348808179500,5.394179443359375,5.432702510091662,0.08391849252805113,-0.16527020330801606
1740240348818242300,5.4042421875,4.902268768945336,0.4096938766993582,0.24166524152867494
1740240348828305400,5.414305419921875,5.297228456240892,0.2882878764938563,0.4653517587743699
1740240348838369000,5.424369140625,5.918090071809291,-0.303209752223175,0.11343363308683037
1740240348848433200,5.43443310546875,6.996033776587248,-0.43883916103243825,-0.3258164468340575
1740240348858496300,5.444496337890625,7.835351096075772,-0.6992650710020214,-0.6846044582910835
1740240348868559000,5.45455908203125,7.207890812894702,-0.7845568246446549,-0.6531819497410207
1740240348878623200,5.464623291015625,7.370393743446469,-0.14106456733420492,-0.2487520579844713
1740240348888686000,5.47468603515625,7.339959442216157,0.47217970509827134,-0.12155023098178207
1740240348898749200,5.484749267578125,6.765273886889219,0.537477083786577,0.24198672856800257
1740240348908812300,5.494812255859375,6.760691819795966,0.30854236368909477,-0.13926518976204097
1740240348918876200,5.504876220703125,6.563451922383904,0.21849019071161746,-0.6239162538986652
1740240348928939000,5.51493896484375,6.381796547594666,0.2839464132234454,-0.9895426600083708
1740240348939002400,5.52500244140625,6.517079462787509,0.49320524973124263,-0.9415236022487282
1740240348949066200,5.535066162109375,5.956789512559771,0.5981146539703012,-0.7691983658626675
1740240348959129000,5.545129150390625,5.107179931637645,0.7552867448881269,-1.1103702027387916
1740240348969192200,5.555192138671875,4.647114442703128,1.3128788343340159,-1.2897021030165254
1740240348979255300,5.56525537109375,4.050147497463226,1.9641107459858058,-1.2396107690274714
1740240348989319200,5.575319091796875,3.3078257403492928,2.6323835165485736,-1.040880048535764
1740240348999382300,5.58538232421875,2.5926912653684613,3.341527518942952,-0.8188419560842215
1740240349009445000,5.595445068359375,1.9221511343955993,4.1257986585140225,-0.5428361996669322
1740240349019509000,5.605509033203125,0.9813713362514972,4.7521162014007565,-0.2277730559069663
1740240349029572400,5.615572265625,0.10742927810549735,4.881940266665816,-0.2503058998303488
1740240349039635200,5.62563525390625,-0.11212181983590125,4.4087651207894085,-0.46994537017494437
1740240349049698000,5.635697998046875,0.07850655048191547,4.310660720390081,-1.0262771573614329
1740240349059762200,5.64576220703125,0.0697732089281082,4.810583587938547,-1.4098415173523127
1740240349069825300,5.6558251953125,-0.8322843521118164,5.068778597050905,-1.3405255506724119
1740240349079888100,5.66588818359375,-2.5078736320436,4.676848486709594,-1.255132893938571
1740240349089952300,5.6759521484375,-3.3716859258413314,4.401565564674139,-1.6181896687559782
1740240349100015000,5.68601513671875,-3.364313935768604,4.363943982288241,-1.8235203720346091
1740240349110078200,5.696078125,-3.420542018947005,4.473753433528542,-1.5830869373232126
1740240349120141300,5.706141357421875,-2.747422392874956,4.8700049142003055,-1.5908303910568355
1740240349130205200,5.716205078125,-1.753321923431754,5.013835877507924,-1.6801251697957515
1740240349140268000,5.72626806640625,-1.7621961347609758,5.208462377551197,-1.3932513248182832
1740240349150331100,5.7363310546875,-2.1758096691220996,5.259768201896548,-1.2526587589100002
1740240349160395300,5.746395263671875,-2.9906144786447286,4.603810723027586,-1.0144034719552844
1740240349170458000,5.7564580078125,-4.300049894526601,3.8447798231750725,-1.250540743842721
1740240349180521200,5.766521240234375,-4.442391496059298,3.284935863149166,-1.5922097165860234
1740240349190584000,5.776583984375,-4.36340505310595,2.2728519932478664,-1.9658288019500672
1740240349200648200,5.786648193359375,-4.873898414507508,1.736667141228914,-2.2975961200125514
1740240349210711300,5.796711181640625,-4.58953728300333,1.8333435546517372,-2.3452618342898783
1740240349220774100,5.806774169921875,-3.927950273814797,1.6766174539357424,-2.1230752732783555
1740240349230837000,5.8168369140625,-4.117879263691604,1.1002245101690291,-1.8039282212056218
1740240349240901000,5.826901123046875,-4.973588038271665,0.6351105056732893,-1.3113773437298835
1740240349250964200,5.836964111328125,-5.816538745826483,0.677349810987711,-0.758642338926345
1740240349261027000,5.847027099609375,-5.8254901140451425,0.9426192885309457,-0.347526174338907
1740240349271091200,5.85709130859375,-5.088188230919838,1.4039426685720682,-0.5411269845962524
1740240349281154000,5.867154052734375,-4.770790214471519,1.7865484857290983,-0.9826023393511771
1740240349291217200,5.877217041015625,-5.465897508206964,1.9703128154963254,-1.1886235091120003
1740240349301280300,5.8872802734375,-6.612254239475726,2.1547429156959055,-1.1155857454299927
1740240349311344000,5.89734423828125,-7.054084983539581,2.431300095450878,-0.7481123232141137
1740240349321407000,5.907406982421875,-6.6705030148267745,2.6982974197000265,-0.45164165172129866
1740240349331470300,5.91747021484375,-6.567859217432141,2.839094714400172,-0.9409475559264421
1740240349341534200,5.9275341796875,-7.215341128900647,2.962242955163121,-1.6273431354179977
1740240349351597000,5.93759716796875,-6.376030823674798,3.2232968608379364,-1.9083257303997874
1740240349361660200,5.94766015625,-6.829957079201936,3.3646856916904446,-2.305761160159111
1740240349371723300,5.95772314453125,-7.967375886255502,3.314074863871932,-1.909275578470528
1740240349381787100,5.967787109375,-8.941605534058809,3.3667209969103333,-0.5869689905777573
1740240349391850200,5.977850341796875,-9.848513457739353,3.6764486248612402,0.27664631934314965
1740240349401913000,5.9879130859375,-10.718534543049335,4.237004532548785,0.5806301429450511
1740240349411976200,5.99797607421875,-11.008642109251022,4.713676288369298,0.5306584898129105
1740240349422040300,6.008040283203125,-12.529307369452715,5.338665797522664,-0.08601502641588449
1740240349432103200,6.018103271484375,-12.015112815445661,6.2901832627803085,-0.8390662673369049
1740240349442166000,6.028166015625,-9.162556561926007,6.9213692884862414,-1.9867486942514776
1740240349452230100,6.038230224609375,-7.2703475613296025,6.678775753131508,-3.006321166342497
1740240349462293200,6.048293212890625,-5.755672481453418,6.0536255004584785,-2.8383514948174358
1740240349472356000,6.058356201171875,-4.769235678505897,5.6423103061676025,-2.785203549736738
1740240349482419200,6.068419189453125,-5.00463024226725,5.212805375191569,-2.2857637895300984
1740240349492483000,6.078483154296875,-4.389028154662252,5.437229632127285,-1.6893557933472096
1740240349502546200,6.088546142578125,-4.505222338503599,5.543236183953285,-1.790474427001178
1740240349512609300,6.098609375,-4.8921483569473025,5.384412818697094,-2.276831564403325
1740240349522672000,6.108672119140625,-4.542075274604558,4.584519162580371,-2.719447759756446
1740240349532736000,6.118736083984375,-3.9003321990489956,3.4197897392749783,-2.3128030414946377
1740240349542799400,6.12879931640625,-3.8367414781481024,3.0330057596504685,-1.943806501364708
1740240349552862200,6.1388623046875,-3.9507992344826457,3.1095860182449218,-2.095858472789824
1740240349562926000,6.148926025390625,-4.0684015315562485,2.6196754261448976,-2.34540314245671
1740240349572989200,6.1589892578125,-4.457409032449126,2.313424242132902,-2.1089403649419545
1740240349583052000,6.169052001953125,-4.22682976001501,2.1988845475003123,-2.3658405119381842
1740240349593115100,6.179115234375,-3.61003583227694,2.207164300067723,-3.02195274297744
1740240349603179300,6.18917919921875,-4.058050817933679,1.843738984198868,-2.8479747709482908
1740240349613242000,6.1992421875,-3.8191806870162486,1.4449626612246036,-2.3263620496392248
1740240349623305000,6.209304931640625,-1.629454136222601,1.1546937669813633,-2.20011964225322
1740240349633368300,6.219368408203125,-0.5193681572526693,0.6429606346517801,-2.426959582028538
1740240349643432200,6.22943212890625,-1.555461263772845,0.03999064960479736,-2.4578309595018624
1740240349653495000,6.2394951171875,-2.40742412982285,0.13833411945700644,-2.3050772695481774
1740240349663558100,6.24955810546875,-2.7915643169403075,0.668147682878375,-2.090511266542971
1740240349673622000,6.2596220703125,-3.048439475625753,1.2739029147297143,-1.5989001541353762
1740240349683685000,6.26968505859375,-2.8049814323961733,1.7811843283474444,-1.1202504493054002
1740240349693748200,6.279748291015625,-2.4271564197748896,1.7589193050473928,-1.0871327542100102
1740240349703811000,6.28981103515625,-2.087339358508587,1.562397785037756,-1.019085200030729
1740240349713875000,6.299875,-1.901487701073289,1.795638970157504,-0.7861956778928637
1740240349723938300,6.309938232421875,-2.2159353432834146,1.9972358937352894,-0.6305195976864546
1740240349734001200,6.320001220703125,-2.333776709809899,2.302079256775975,-0.4627613769549876
1740240349744065300,6.330065185546875,-1.8375299004256724,2.570312260299921,-0.23914598871674386
1740240349754128100,6.340128173828125,-1.443156488585472,2.5102526361346245,-0.09992175201959907
1740240349764191200,6.350191162109375,-1.1015011059761046,2.454879123958945,-0.09743797237984836
1740240349774254000,6.360254150390625,-1.0376619632720947,2.5047294887989757,-0.11160188761502504
1740240349784318200,6.370318115234375,-1.1169734003961085,2.7993337818980217,0.22207027768809348
1740240349794381000,6.380381103515625,-0.7244944240003823,3.2257395778149363,0.6823699772372841
1740240349804444200,6.390444091796875,0.1778407849371433,3.3719355166882274,1.1722436713930218
1740240349814507300,6.40050732421875,0.7265589553147555,3.1893145117372272,1.3462427592754362
1740240349824571100,6.410571044921875,1.0371896695852278,3.0705747350662946,1.1177712727755307
1740240349834633700,6.4206337890625,0.7768044569522142,2.819783864730596,0.3246136834481731
1740240349844697000,6.430697021484375,-0.6475014929518104,2.5523832203775645,-0.37132691930625583
1740240349854760000,6.440760009765625,-1.1438646221920847,2.7226041779607533,-0.4960766404490918
1740240349864823800,6.45082373046875,-0.6769640265405178,2.952059999322891,-0.34397023542299865
1740240349874887000,6.460886962890625,-0.15366583636254072,3.147777801734209,0.02445394817907363
1740240349884950000,6.470949951171875,0.23439123193770645,3.2591245455443856,0.369427405827865
1740240349895012900,6.481012939453125,0.4887018008321523,3.211042359420657,0.7706883121594786
1740240349905077000,6.491076904296875,1.0005985992908477,3.1817718412727114,1.2032339260056615
1740240349915139800,6.501139892578125,1.3820435559749602,3.1216578565716744,1.2876572993159294
1740240349925203000,6.511202880859375,0.9854004456371068,2.923628270086646,0.9859626095645129
1740240349935267000,6.52126708984375,0.7191551087990403,2.71649358612597,0.7276559567712247
1740240349945330000,6.531329833984375,1.1129267553538083,2.707587810614705,0.5947652704771608
1740240349955392800,6.541392822265625,1.5848066007226704,2.748602542570233,0.6872407981440425
1740240349965456100,6.5514560546875,1.697605004645884,2.8442653950363397,0.6667573975637555
1740240349975520000,6.56152001953125,1.3815806146383285,2.946855416417122,0.7069246458444743
1740240349985582800,6.571582763671875,1.1938435818478463,3.0406904689341783,0.8432892918594181
1740240349995646000,6.58164599609375,1.2480515573754907,3.1509710448175667,1.0009298770718276
1740240350005709000,6.591708984375,1.4125421546131371,3.1263556589990853,1.1263095301486552
1740240350015773000,6.60177294921875,1.8146084590435028,2.9716040732264517,1.1462051939688622
1740240350025836000,6.6118359375,2.3094185136228798,2.8876357502073047,1.134137155034393
1740240350035899000,6.62189892578125,2.882251134559512,2.719711963650584,0.899917626401782
1740240350045962800,6.631962646484375,3.4964781344190237,2.4512357990205285,0.5903001077618449
1740240350056025900,6.64202587890625,3.432610350142419,2.3801859942853447,0.20941088526435195
1740240350066089000,6.6520888671875,2.963996520832181,2.3012486511707304,-0.11054415872301905
1740240350076151800,6.66215185546875,2.376142564113438,2.2546061424613,-0.14135233476702122
1740240350086216000,6.6722158203125,1.9641399720802901,2.4964888991981744,0.029502098414115607
1740240350096278800,6.68227880859375,1.8378145625859499,2.529910691806674,0.15563476181533187
1740240350106342000,6.692341796875,1.9708385929360985,2.6693302684128284,0.08510452397484332
1740240350116405000,6.702405029296875,2.6628859145790336,2.6713258261442183,0.06110116910748183
1740240350126468900,6.71246875,3.714977677480876,2.4246488208681343,-0.040965431187395006
1740240350136531700,6.72253173828125,4.558038275150954,2.2474638694912192,-0.12784277352103962
1740240350146595000,6.732594970703125,5.251569113349914,2.3535522543817757,-0.11314436781667173
1740240350156658000,6.742657958984375,5.5769110745400186,2.4694348880559205,-0.00621743147643283
1740240350166721800,6.7527216796875,5.408621961802244,2.4887995137393473,0.13746256992002018
1740240350176785000,6.762784912109375,5.047156547829508,2.5843612439185377,0.36184389189630745
1740240350186848000,6.772847900390625,4.48489091361463,2.902756746971607,0.6477975532889366
1740240350196911900,6.782911865234375,4.46579516800046,3.0722301010578867,0.5644713275656104
1740240350206975000,6.79297509765625,4.8378813447088,2.881010779109597,0.39693990132734175
1740240350217037800,6.803037841796875,5.007842774572969,2.9757535941213367,0.14408165013305843
1740240350227101000,6.813100830078125,5.158595646098256,3.2806507331758734,-0.3125943790262565
1740240350237165000,6.8231650390625,5.019730780765414,3.5073949574917553,-0.6260466169908643
1740240350247228000,6.833227783203125,4.784581716197729,3.6932279102265833,-0.650510319378972
1740240350257290800,6.843290771484375,4.97382126250565,3.7342742063641547,-0.5139113531515002
1740240350267354000,6.85335400390625,5.35900189858675,3.568511397233605,-0.521718812032044
1740240350277418000,6.86341796875,5.174003643110394,3.5162007797598838,-0.40175292763225734
1740240350287480800,6.873480712890625,4.852369888788461,3.5961382398277517,-0.17170177072547374
1740240350297544000,6.8835439453125,4.485124722370505,3.787798875802755,-0.03170271373093128
1740240350307607000,6.89360693359375,4.15146618373394,3.9801100846409794,0.057133836379088455
1740240350317671000,6.9036708984375,4.144073735395073,3.961910995605588,0.1230828839091584
1740240350327734000,6.913734130859375,4.340264416015148,3.685471889272332,0.10231430971194058
1740240350337796900,6.923796875,4.369309893235564,3.4128923809766767,-0.00551507362704724
1740240350347860000,6.93385986328125,4.482836319172382,3.305724968677759,-0.08110281405281275
1740240350357924000,6.943924072265625,4.739559502166509,3.3098768276602026,0.037084297171421345
1740240350367987000,6.953987060546875,5.105888722783327,3.4796874508768316,-0.11265687656067311
1740240350378049800,6.9640498046875,5.413469986355304,3.648335460054874,-0.28818693687003105
1740240350388114000,6.974114013671875,5.135384866380691,3.6568694796442984,-0.4562873586352914
1740240350398177000,6.984177001953125,4.1543092982053755,3.8367970077276228,-0.8150458517368883
1740240350408239900,6.994239990234375,3.8752538718938827,3.8521079741060733,-0.8186360582485794
1740240350418303000,7.004302978515625,4.125654866129159,4.022528253653645,-0.7129276125863194
1740240350428366800,7.014366943359375,4.489172536456585,4.103575720790029,-0.2955151425999589
1740240350438430000,7.024429931640625,5.005133515614271,3.8861177957355975,-0.03127639634395018
1740240350448493000,7.0344931640625,5.371289717751741,3.755036423885822,-0.011062369023263454
1740240350458556000,7.044555908203125,5.389599865946173,4.258894877317547,-0.09096388099491595
1740240350468619800,7.054619873046875,4.933112820020318,4.60857925260365,-0.17905213348828256
1740240350478683000,7.064682861328125,4.035186075174808,4.73082060765475,0.1080301483417861
1740240350488746000,7.07474609375,4.042981259095669,4.978315651315451,0.44203912611752744
1740240350498808800,7.084808837890625,3.8614550636440512,4.8927933768525715,0.7478645589981228
1740240350508873000,7.094873046875,3.900823781958222,4.647037578074634,0.7707621811132878
1740240350518935800,7.104935791015625,3.6720185334593056,4.5848093776986,0.6917997035574167
1740240350528999000,7.1149990234375,3.4704864918112754,4.569566800381243,0.666822060297802
1740240350539062000,7.12506201171875,3.5210704316228627,4.551880921564996,0.628562983725965
1740240350549126000,7.1351259765625,3.6862323522508142,4.496042714487016,0.6023950712358579
1740240350559188700,7.145188720703125,3.094191757497191,4.269594258247316,0.4370155258018523
1740240350569252000,7.155252197265625,2.380364273461699,3.980793975251913,0.01657936061276123
1740240350579315000,7.16531494140625,1.5332733973622321,3.3952249145999547,-0.4316334309047088
1740240350589378800,7.17537890625,0.7413724935650825,2.778329572314024,-0.8445191259153186
1740240350599442000,7.18544189453125,-0.4456558553099632,2.153926192485541,-0.7759718055203556
1740240350609505000,7.195505126953125,-2.0563246270418167,1.3819295742064714,-0.5472593864040449
1740240350619569000,7.20556884765625,-3.33776378249526,1.763559970460087,-0.03430690487995743
1740240350629632000,7.215632080078125,-4.609416287949681,2.085100931932032,-0.0026773659830912947
1740240350639694800,7.22569482421875,-5.390199000883102,2.001810362043977,-0.3139431632867083
1740240350649758000,7.235758056640625,-6.897197554782033,1.573320307198912,-0.48502537734173234
1740240350659822000,7.245822021484375,-9.470525948032737,0.9957859383121133,-0.36627876907121387
1740240350669885000,7.255885009765625,-11.70477728472948,0.30623598644286393,-0.16391681593768298
1740240350679947800,7.26594775390625,-12.965960418617724,-0.1710897032417357,0.07298526630979031
1740240350690011100,7.27601123046875,-13.16698217265606,-0.14786496806405483,0.31070922286678104
1740240350700075000,7.286074951171875,-13.135581656742096,-0.38731706358790396,0.6449054851092397
1740240350710137900,7.296137939453125,-12.630636577117443,-0.7068244734056294,0.8658578281506896
1740240350720201000,7.306200927734375,-11.751731928128004,-1.1215702266670762,0.969871306463331
1740240350730264000,7.31626416015625,-11.036149709379673,-1.5256136763893067,1.0229356649138033
1740240350740328000,7.326327880859375,-10.19514779780507,-1.783881604607403,0.8466253044143318
1740240350750391000,7.33639111328125,-9.176194042134284,-2.200058559715748,0.6000550474483519
1740240350760454000,7.346453857421875,-8.606800747996568,-2.2854630530178546,0.6470138555653393
1740240350770517000,7.35651708984375,-8.680694251725077,-2.3816182190455497,0.5089557035055011
1740240350780581000,7.3665810546875,-8.716630657503009,-2.3440599111542104,0.39670068574398754
1740240350790644000,7.37664404296875,-7.679538018551469,-2.2834594581104812,0.3685992844406515
1740240350800706800,7.386706787109375,-6.060512337362766,-1.9193328621044754,0.43525103687997907
1740240350810770000,7.39677001953125,-6.568913694921135,-1.8886629985526202,0.417192927217856
1740240350820834000,7.406833984375,-5.543071348780393,-1.7628766643710434,0.18753990278318522
1740240350830897000,7.41689697265625,-3.98066830304563,-1.385057643099129,0.03963420084994286
1740240350840959200,7.426959228515625,-5.004943546000122,-1.8392814202681183,0.39154366830699144
1740240350851022600,7.437022705078125,-4.913066641813517,-1.7747604327797888,-0.35078313030824065
1740240350861086500,7.44708642578125,-3.30490254637897,-1.7317307077400386,-0.6769019941549748
1740240350871149600,7.457149658203125,-2.8178683864980933,-1.5365215855032204,-0.9182418031215667
1740240350881212400,7.46721240234375,-2.1108704562216998,-1.4566000536568462,-1.2074791623599828
1740240350891275500,7.477275634765625,-1.9008271913379429,-1.3639889899767934,-1.2315887906134129
1740240350901339600,7.487339599609375,-1.262570204332471,-1.401526985732466,-1.3636299474060534
1740240350911402500,7.497402587890625,-0.8956471094757318,-1.0900609896816313,-1.4771215942904352
1740240350921465300,7.50746533203125,-1.041919036194682,-1.0526282078661024,-1.0012439114570617
1740240350931528400,7.517528564453125,-0.8266103981286287,-0.9718178374212235,-0.49765693191047755
1740240350941592600,7.527592529296875,-0.8065612973123788,-0.7943394560556858,-0.06861644010841846
1740240350951655400,7.537655517578125,-0.0007236380994319916,-0.6849024183243513,0.05055559049993753
1740240350961718300,7.54771826171875,0.5437696080595255,-0.3854984698586166,-0.18456950867027044
1740240350971781400,7.557781494140625,0.5829325746685267,-0.007134966446459293,-0.4108087060734629
1740240350981845500,7.567845458984375,0.6680225951939821,0.46540502333156764,-0.6089946521639824
1740240350991908400,7.577908447265625,0.9111743489533662,0.8911378884229808,-0.5809695674998685
1740240351001971500,7.587971435546875,0.7454787598401308,1.0283487760037182,-0.20493947547134012
1740240351012034300,7.598034423828125,0.45054187378585336,1.0717423659197987,0.16132278085649013
1740240351022098200,7.60809814453125,0.37462241718769074,1.0013603774435818,0.22996373435165732
1740240351032161500,7.61816162109375,0.5838590418636799,0.8148726140618324,0.03808547357060015
1740240351042224400,7.628224365234375,0.7476496741384268,0.7715542813390492,-0.3264239112079143
1740240351052287200,7.638287353515625,0.8691390417784451,0.853330793402344,-0.4629449898935854
1740240351062351400,7.648351318359375,1.2104898884832858,0.8095778686545789,-0.3954785600705072
1740240351072414500,7.65841455078125,1.3501181394040584,0.7229046705909072,-0.17637621054360642
1740240351082477300,7.668477294921875,1.256301791587472,0.7931547032505273,0.17604032965274527
1740240351092540400,7.67854052734375,1.2088970663338898,0.9892435309313237,0.4929922645676881
1740240351102604300,7.688604248046875,1.3006260864824055,0.9259126300103961,0.7264259035196154
1740240351112667400,7.69866748046875,1.6129595130175352,0.865176275627315,0.815715348496288
1740240351122730500,7.70873046875,1.8239578866690396,0.9021347179293632,0.8122024450045079
1740240351132793300,7.71879345703125,1.9362094703644512,0.8488082014113664,0.7522928237691521
1740240351142857200,7.728857177734375,2.0997066726505755,0.7272386081419885,0.7439139216762035
1740240351152920600,7.738920654296875,2.301255080911517,0.6257767140083015,0.6981113709222525
1740240351162983400,7.7489833984375,2.398214987450838,0.511730648111552,0.7048671287927776
1740240351173046300,7.75904638671875,2.0963795740544793,0.4111988744348287,0.6608481004547327
1740240351183110400,7.7691103515625,1.4981997458934784,0.28566958375424145,0.5456449734773486
1740240351193173500,7.779173583984375,0.5995183832883835,0.2870762356817722,0.40211624451931566
1740240351203236400,7.789236328125,-0.1741553744226694,0.2824970911979675,0.07142972569717095
1740240351213299500,7.799299560546875,-0.2352449261575937,0.28470921428948637,-0.04194583879318088
1740240351223363300,7.80936328125,-0.00817512314915657,0.31049408227875824,0.01771183524141088
1740240351233426400,7.819426513671875,0.19458324542343616,0.38534167186170815,0.07009688792452216
1740240351243489500,7.829489501953125,0.5004232182860374,0.3960622417099774,0.19209093541735783
1740240351253552400,7.839552490234375,0.811536747637391,0.23678660264164209,0.3625824353039264
1740240351263616300,7.8496162109375,1.0724322478801012,0.06365048826411367,0.49469106784220784
1740240351273679600,7.8596796875,1.0167477700591088,-0.2416569851569831,0.5862283282782882
1740240351283742500,7.869742431640625,0.7791425445109605,-0.36084143685549497,0.5473088881015777
1740240351293805300,7.879805419921875,0.3278793707132339,-0.09956453607976436,0.41600357130281623
1740240351303869400,7.889869384765625,-0.19162498013973234,0.16079481145963073,0.3918705621737987
1740240351313932500,7.8999326171875,-0.43279520469307897,0.21120514826998113,0.5013306519871578
1740240351323995400,7.909995361328125,-0.466044563344121,0.09071721275746822,0.6063732176192105
1740240351334058500,7.92005859375,-0.497673042795062,0.02094268865510821,0.6157841661736368
1740240351344122400,7.930122314453125,-0.44032501567602156,0.0646465135641396,0.549022450553812
1740240351354185200,7.940185302734375,-0.3484206389605999,0.004411971223354339,0.3793147031897679
1740240351364248600,7.95024853515625,-0.3078039664119482,-0.055882484611123794,0.20991375675257293
1740240351374311400,7.9603115234375,-0.34137130497097967,-0.19334391288682817,0.03475680407192558
1740240351384375300,7.970375244140625,-0.33220833982825276,-0.2625271930977702,-0.09300057445429265
1740240351394438400,7.9804384765625,-0.3168254772573709,-0.28822014501988885,-0.16964703015275298
1740240351404501500,7.99050146484375,-0.3949193552851677,-0.26382030164822934,-0.17758971451921388
1740240351414564400,8.000564453125,-0.48751112974286076,-0.17726576152816415,-0.10660219789789989
1740240351424628500,8.01062841796875,-0.5063607916414737,-0.07422185890004038,-0.01144977917196229
1740240351434691300,8.02069140625,-0.554869094222784,-0.03606485446318984,0.131977498705592
1740240351444754400,8.03075439453125,-0.6616980683475733,0.04091755519136786,0.2374243342895992
1740240351454817500,8.040817626953125,-0.6582166559725999,0.14078122034817933,0.2825049822434783
1740240351464880400,8.05088037109375,-0.4670417576879263,0.17939239829331635,0.18179925850564613
1740240351474944300,8.0609443359375,-0.20643968743383884,0.11566694509685038,0.0750371025393717
1740240351485007600,8.071007568359375,-0.014628829333186148,0.0918776348389685,0.0012872815978713333
1740240351495070500,8.081070556640626,0.13041384785175322,0.06396715299785137,-0.03279547740370035
1740240351505133300,8.09113330078125,0.1818067659586668,0.07008198261633515,0.019407049186201765
1740240351515197400,8.101197509765624,0.11591419785618781,0.11922361466512084,0.10693275415967218
1740240351525260500,8.111260498046875,0.04310205962359905,0.09385843339264392,0.11593401680151
1740240351535323400,8.121323486328125,-0.1879839932888746,0.007443301743268967,0.09743817330924794
1740240351545386200,8.13138623046875,-0.5780167455762625,-0.021914310166239737,-0.04053041903730482
1740240351555450400,8.141450439453125,-0.680421473518014,-0.04599442006424069,-0.2092918254619464
1740240351565513500,8.151513427734375,-0.4859451956003904,-0.07203676994591951,0.22254797820243982
1740240351575576300,8.161576416015626,-0.004680266770720482,0.05020312380045652,0.7336560739688575
1740240351585639400,8.171639404296876,0.18876608357727526,0.3072552464880049,0.6730206226769835
1740240351595703300,8.181703369140624,-0.1433995861530304,0.32300051263049245,0.30091605179542674
1740240351605766700,8.1917666015625,-0.4327618869453668,0.21385697795301675,0.0956866260673385
1740240351615829500,8.20182958984375,-0.25984452988505363,0.0843948778681457,0.20175017791073768
1740240351625892400,8.211892333984375,0.058176879158616066,-0.03944733650833368,0.20719989468399433
1740240351635956500,8.22195654296875,0.219503751668334,-0.09929594827145337,-0.08162015245780348
1740240351646019600,8.23201953125,0.4327414286792278,-0.3505842467352748,-0.4962133089734241
1740240351656082400,8.24208251953125,0.6597405045390129,-0.4580240462347865,-0.7911322575122117
1740240351666145300,8.252145263671874,1.0612632036119698,-0.10100538253784179,-1.3275351361960173
1740240351676209400,8.26220947265625,1.1940800209522247,-0.1587403631478548,-0.848026914840564
1740240351686272300,8.272272216796875,0.27816461495161054,-0.3287523541554808,0.1520366003260482
1740240351696335400,8.28233544921875,0.5288672224819659,-0.06668079587072133,0.6257902310770005
1740240351706398500,8.2923984375,0.3036035921126604,0.1567449515469372,0.9427098894238471
1740240351716461300,8.30246142578125,-0.41053953374326224,0.11053557355776429,1.100934923460707
1740240351726525200,8.312525146484376,-0.7420780114859342,-0.03041442748606205,0.9267124020859598
1740240351736588500,8.322588623046874,-0.9032739510923623,-0.11482698714137077,0.29816899984329936
1740240351746651400,8.3326513671875,-1.0078069232344626,-0.1774430177912116,-0.2858365743516013
1740240351756714200,8.34271435546875,-0.6384574780136346,-0.18546952624991536,-0.5765522625142708
1740240351766778400,8.3527783203125,-0.30325638611018657,-0.3104182405635714,-0.45669455119669433
1740240351776841500,8.362841552734375,0.18877485140562056,-0.3328535058639943,-0.3368045085120946
1740240351786904300,8.372904296875,0.4758101705551147,-0.2930326598681509,-0.1365313443513587
1740240351796967400,8.382967529296875,0.6724824972122907,-0.1879129738792777,-0.2373633430836722
1740240351807031300,8.39303125,0.36612580699920655,-0.2244670731641352,-0.26700729765389114
1740240351817094400,8.403094482421874,-0.18306290349960327,-0.3047580228447914,-0.17802954897489398
1740240351827157500,8.413157470703124,-0.8512649469137191,-0.2965029663272202,0.1535802952372469
1740240351837220900,8.423220947265625,-1.1444243019014597,-0.05405278496593237,0.5379893076250329
1740240351847285000,8.433284912109375,-1.8619219988822935,0.13332052907869218,0.5875551929678767
1740240351857347800,8.443347900390625,-2.9508447783142326,0.0026573826409876343,0.42653570590689777
1740240351867411000,8.453410888671876,-3.8729298128604888,-0.06329758317321539,0.09843825372988357
1740240351877474000,8.46347412109375,-4.411229465076327,-0.09638502926081419,-0.4046881773665547
1740240351887538000,8.473537841796874,-4.221215427264571,-0.2618772047564387,-0.7233231882639228
1740240351897600800,8.483600830078124,-4.322112088730931,-0.5836743329465389,-0.5717800431437791
1740240351907664100,8.4936640625,-4.625038219973445,-0.8154457377746701,-0.09911061829980462
1740240351917727000,8.50372705078125,-4.838651160037517,-0.9818032979279756,0.654061655184999
1740240351927789800,8.513789794921875,-4.891935006457567,-0.762737060894072,1.0355145759798585
1740240351937854000,8.52385400390625,-5.480438074734806,-0.7938701580435037,1.1882450311884283
1740240351947917000,8.5339169921875,-6.137735277774929,-1.0909431793436408,1.0330490626491606
1740240351957980000,8.54397998046875,-6.248951673203706,-1.2898688378855585,0.7566372096490115
1740240351968042800,8.554042724609374,-7.375788880488276,-1.7384867578715084,0.5375502586206421
1740240351978107000,8.56410693359375,-8.041933406850696,-1.7936778992176055,0.14164543596208096
1740240351988170000,8.574169921875,-8.32180774832964,-1.7578788560837506,-0.0415125619424507
1740240351998233000,8.584233154296875,-8.61670196428597,-1.7693045054614542,-0.1117475066307932
1740240352008296000,8.5942958984375,-8.486047877937555,-1.5845377206534146,-0.20968948301002382
1740240352018359800,8.60435986328125,-7.760087473037839,-1.3475894977092742,-0.2506089378975332
1740240352028423200,8.614423095703126,-6.248515035352111,-0.9030559244275093,0.04096862779147923
1740240352038486000,8.624486083984374,-5.224400535917281,-1.0494663828343151,0.12437135281711816
1740240352048548900,8.634548828125,-4.067877215421199,-0.9993974068075417,0.10193871786519884
1740240352058612000,8.644612060546875,-3.999378264212608,-1.183939150688052,-0.09609919805675744
1740240352068676000,8.654676025390625,-3.9875270828992124,-1.0101163692206143,-0.44317660571485756
1740240352078739000,8.664739013671875,-3.8539486335366964,-0.6614139907091856,-0.9068903880238532
1740240352088801800,8.6748017578125,-3.6915246134400364,-0.32586978445649145,-0.9538902588035911
1740240352098865200,8.684865234375,-3.2491561092376706,0.090495678961277,-0.8293048248443752
1740240352108929000,8.694928955078124,-3.2212714924901724,0.44281215631663795,-0.44366862701550125
1740240352118992000,8.704991943359374,-2.8909470667123793,1.1389654519736767,-0.17866196512691676
1740240352129055000,8.715054931640625,-2.346734975582361,1.4826029483109713,-0.17188969451300798
1740240352139118000,8.7251181640625,-1.8038029873907564,1.248328328490257,-0.2436637949347496
1740240352149182200,8.73518212890625,-1.0178776508718728,1.1546855836749077,-0.3849100024461746
1740240352159245000,8.7452451171875,-0.6981342403411864,1.144971998912096,-0.28774763213731347
1740240352169308000,8.755307861328125,-0.6532628329575061,1.3196721477359532,-0.15061200174987316
1740240352179371000,8.76537109375,-0.32776129729151726,1.5440654250115156,0.001109130285680294
1740240352189434000,8.77543408203125,0.05292144284844398,1.7058178294569253,0.19386684078238903
1740240352199498000,8.785498046875,0.6230442203044891,1.9254367319375276,0.35974458152949806
1740240352209560800,8.795560791015625,0.9051011665195227,2.1537451368302105,0.3691769381981343
1740240352219624000,8.8056240234375,1.3079963229894638,2.274723632338643,0.3241792010210454
1740240352229687000,8.81568701171875,1.8978221643030642,2.4187445652604103,0.38919557081088424
1740240352239751000,8.8257509765625,2.344894316151738,2.5356524503290654,0.4478533653542399
1740240352249814000,8.83581396484375,2.7381425233542918,2.6744144398093224,0.45435127600617703
1740240352259876900,8.845876953125,3.0326401412084696,2.6317326514244077,0.44296113633327183
1740240352269940000,8.85593994140625,3.260003666466474,2.600728441351652,0.3927849736049771
1740240352280004000,8.866004150390625,3.7682103782355783,2.7268431307047605,0.4001989031232893
1740240352290067000,8.87606689453125,4.107169361367822,2.8231553869903085,0.5132419294573366
1740240352300129800,8.8861298828125,4.484432648453116,2.7574855217278,0.31298370713740586
1740240352310193200,8.896193115234375,4.5644133631408215,2.657216052249074,-0.019591493241861463
1740240352320256000,8.906256103515625,4.124648903957009,2.508248310574889,-0.029093408015370366
1740240352330320000,8.91631982421875,3.7828576200082895,2.285577619308233,-0.21226379047743976
1740240352340383000,8.926383056640624,3.73536375516653,2.0419097327202556,-0.5282818603420629
1740240352350446000,8.936446044921874,3.864645384117961,2.1212597482889888,-0.5396995456090197
1740240352360509000,8.946509033203125,3.932527080211043,2.4273756154835224,-0.2200997448001057
1740240352370573000,8.956572998046875,4.410591751694679,2.688351779747009,0.10672598867435008
1740240352380636000,8.966635986328125,4.787179331475496,2.7010458416253327,0.46645964695103465
1740240352390699000,8.976698974609375,4.786477320685982,2.85235810059905,0.8070037073176354
1740240352400762000,8.98676220703125,5.010789933940768,2.963895398545265,0.90633472690247
1740240352410826000,8.996825927734376,5.110001418799162,2.9462966134905813,0.6522882157716899
1740240352420888800,9.006888916015624,4.927286890345812,2.747573199522495,0.2801842659446411
1740240352430952200,9.0169521484375,4.136519959014654,2.399656418430805,0.08495187243008985
1740240352441015000,9.02701513671875,2.960841856193542,2.4436171407103537,0.005089432093501091
1740240352451078000,9.037077880859375,2.724518487149477,2.828574489429593,0.12721826668083666
1740240352461142000,9.04714208984375,3.1401877849966287,3.3180613031595945,-0.1561399348584935
1740240352471205000,9.057205078125,3.070933631506562,3.247102099317312,-0.3467106567049399
1740240352481268000,9.06726806640625,3.719855804911256,3.225649561443925,-0.3720521283082664
1740240352491330800,9.077330810546876,4.192762655240297,3.1314474291801453,-0.26111834921315313
1740240352501394000,9.087393798828124,4.2535716364681715,2.981456189677119,-0.003956555606052279
1740240352511458000,9.0974580078125,4.255908554983138,2.755226929146051,0.1926216630268842
1740240352521521000,9.10752099609375,3.9102006821125745,2.5192343994915483,0.3712650330511853
1740240352531584000,9.117583984375,3.494198206788301,2.15305598552227,0.6290577084403485
1740240352541646800,9.127646728515625,4.263068948131799,2.429073067051172,0.17441424455456433
1740240352551710700,9.137710693359375,4.764005961158872,2.990020604404807,-0.3164353819612413
1740240352561774000,9.147774169921876,4.477840410581231,3.1515725178420544,-0.16713833526745436
1740240352571837000,9.1578369140625,4.113563446319103,3.1005846734046933,-0.04407331580854952
1740240352581899800,9.167899658203124,3.5454964323490854,2.9512159497141837,-0.012371113534271717
1740240352591964000,9.1779638671875,3.763334296631813,2.6087866601228713,-0.1666474282116629
1740240352602027000,9.188027099609375,4.076924445229769,2.4574264703541995,-0.2867048633524217
1740240352612089900,9.19808984375,4.087369266876578,2.4610668726831673,-0.2947320293982513
1740240352622153000,9.208153076171875,4.319613842174411,2.6203105091780423,-0.14238903913730755
1740240352632216000,9.218216064453125,4.505569544506073,2.6990228113651273,0.12027719710497185
1740240352642280000,9.228280029296876,4.884463063141704,2.8852117379307747,0.31730821927301583
1740240352652343000,9.238343017578124,5.374825490662455,3.065400547298789,0.47414479462616144
1740240352662406000,9.248406005859374,5.634772311878204,3.004042700016498,0.5182770375477149
1740240352672469000,9.258468994140625,5.595598239353299,2.735485871365666,0.4906861065171659
1740240352682532000,9.268531982421875,5.687715966558456,2.4835826558738945,0.31849936528634276
1740240352692596000,9.278595947265625,5.896468022587895,2.4047581254839896,0.14110888139996677
1740240352702658800,9.288658935546875,5.715838483715057,2.343418982902169,0.1536475335208699
1740240352712722200,9.29872216796875,6.164509302932023,2.434164837232232,0.10389675659779458
1740240352722785000,9.308784912109376,6.5176207300573585,2.591172092977166,-0.14666951120179145
1740240352732849000,9.318848876953124,6.6080491890013215,2.7208286927208305,-0.4584082597794011
1740240352742912000,9.328912109375,6.719197195369005,2.8890242819562553,-0.5801917149951681
1740240352752975000,9.33897509765625,6.650039487990736,2.8609026415824887,-0.6199709503389894
1740240352763038000,9.349037841796875,6.426666785934567,2.7442937394604083,-0.7512685952879488
1740240352773100800,9.359100830078125,6.549003710314631,2.682938230265677,-0.6090920481238514
1740240352783165000,9.3691650390625,6.948110580417514,2.7227459245190024,-0.41859103051275015
1740240352793228000,9.37922802734375,6.873214037126302,2.8047067071080205,-0.18642960345372556
1740240352803291000,9.389290771484376,6.60846303049922,2.929120145501196,0.025094036180898546
1740240352813354000,9.39935400390625,5.958375320446491,3.2317168986588714,0.11857852169461548
1740240352823416800,9.409416748046874,4.621773080697656,3.4291502728164196,0.16043810697644947
1740240352833481000,9.41948095703125,3.572560964885354,3.705484749731421,-0.039146161604672665
1740240352843544000,9.4295439453125,2.994689180737734,3.847170225442946,-0.676651818786189
1740240352853607000,9.43960693359375,3.122608873686194,3.8745319873601196,-1.728835278559476
1740240352863670000,9.449669921875,3.0739936035990714,3.645621817182004,-2.80271173389852
1740240352873734000,9.45973388671875,2.7413024486899373,3.2719986401647327,-3.369500690756738
1740240352883797000,9.469796875,2.554502112227678,3.022331220901012,-3.2418981009334322
1740240352893860000,9.479860107421874,2.366470188143849,2.7795535611510274,-2.4201149768307806
1740240352903923000,9.4899228515625,2.2835440676540135,3.0223060864597557,-1.1470841687604785
1740240352913986000,9.499986083984375,2.1013386577665805,3.5766853513389822,-0.5413325901709497
1740240352924050200,9.51005029296875,1.3348375681638718,3.8918230216398833,-1.344139649516344
1740240352934113000,9.520113037109375,-0.07896423112154007,3.6509634704709053,-2.6352245851933955
1740240352944175900,9.53017578125,-1.276309391349554,3.3676004100933667,-3.2112346671223637
1740240352954239200,9.5402392578125,-1.6936328861445187,3.616729776957631,-2.9371149436473845
1740240352964302000,9.550302001953124,-2.0578654267430303,3.9423026242941615,-2.094615340860933
1740240352974366000,9.560365966796875,-3.53219096057415,4.286663758730888,-0.37515871602147816
1740240352984429000,9.570428955078125,-5.699202406212687,4.953265965732932,1.9383514508292077
1740240352994492200,9.5804921875,-7.908209411537647,5.49598577247858,3.5637498819202182
1740240353004555000,9.590554931640625,-9.804824538138508,5.63716651353836,4.256038903364539
1740240353014619100,9.600619140625,-10.303208359551428,5.724565395528078,4.646258118134737
1740240353024682000,9.610681884765626,-9.706899585959315,5.5395168711692095,4.842796589279175
1740240353034745000,9.6207451171875,-9.578039981812237,5.220889897447824,5.126428821986913
1740240353044808200,9.63080810546875,-9.381639457833767,4.5143040551036595,4.755040564414858
1740240353054871000,9.64087109375,-9.641885554257035,2.9771845037072895,3.4306536631166935
1740240353064935000,9.650934814453125,-10.692441485893726,1.376271986836195,2.3821483803994954
1740240353074998000,9.660998046875,-10.425676216834782,0.7803674101307988,2.16847012001425
1740240353085061000,9.67106103515625,-9.282345555388927,0.7541787836462259,2.1728552032306787
1740240353095124000,9.6811240234375,-8.190556280609965,0.7099693473026156,2.0412851710811255
1740240353105186800,9.691186767578126,-8.073613908749818,0.183607970161736,1.4328937455072999
1740240353115251000,9.7012509765625,-8.492297585982083,-0.19618045148700475,0.35293607055842874
1740240353125314000,9.71131396484375,-9.418243387609719,-0.3023234891742468,-0.5491460404008627
1740240353135377000,9.721376953125,-10.958769532579183,-0.4947960260540247,-1.1037569220788777
1740240353145440000,9.73143994140625,-11.968420037853717,-0.5941551026895642,-1.109164626341313
1740240353155503000,9.741503173828125,-11.559665049439667,-0.3943523690521717,-0.7340605631165206
1740240353165567200,9.751567138671875,-10.631870989596843,-0.29989655428826806,-0.6054813102807849
1740240353175630000,9.761630126953126,-9.614091538402437,-0.13078326568603516,0.07549447265174239
1740240353185693000,9.77169287109375,-8.755167016646265,-0.14587225987687705,0.9546277062326669
1740240353195756000,9.781756103515624,-8.834242891448735,0.11632336317896842,2.2245067722737786
1740240353205820200,9.791820068359375,-8.772962785577773,0.33257337374836204,3.2344398938819765
1740240353215883000,9.801883056640625,-8.61520734181404,0.1333447867371142,3.190264359807968
1740240353225945900,9.81194580078125,-9.148803346383572,0.1774389261379838,2.601539757734537
1740240353236009200,9.82200927734375,-9.410626482865213,0.08123462373893707,2.5005767530336973
1740240353246072000,9.832072021484375,-8.816734707286953,0.5542780695270747,1.8350439288288354
1740240353256136000,9.842135986328126,-9.098601099365949,0.8103749373164028,2.050134978621453
1740240353266199000,9.852198974609376,-8.964255172762273,0.8606437467642128,2.2836089495837686
1740240353276262100,9.86226220703125,-7.770202624338864,1.2628421531416476,2.0264637417852875
1740240353286325000,9.872324951171874,-6.37843203959763,1.7379836306549608,2.0725947938412426
1740240353296388000,9.88238818359375,-5.47649547458887,1.904619715488702,2.731271468541026
1740240353306452000,9.892451904296875,-4.92712088612914,2.0677052682340142,3.686717797680199
1740240353316515000,9.90251513671875,-3.925309988439083,2.3855600885391235,3.7307518774569033
1740240353326578200,9.912578125,-3.0469828470766545,2.779959511603415,3.48659065439403
1740240353336641000,9.92264111328125,-2.4489386279940604,2.6560806184783576,3.3990661001980302
1740240353346704100,9.9327041015625,-1.4407979427605866,2.2774343526020644,3.0370845533967015
1740240353356768300,9.942768310546874,-0.3585322831302881,1.6501733913853764,2.588338915377855
1740240353366831000,9.9528310546875,-0.3873106338471174,1.1628174522042274,2.4642256289750337
1740240353376894000,9.96289404296875,-1.141575926733017,1.3265008247122168,2.6332553309470415
1740240353386957000,9.97295703125,-1.7867133209019899,1.8819164469018577,3.0475811052307487
1740240353397020200,9.983020263671875,-2.0676421398699283,2.2938161630824205,3.1345462719783184
1740240353407084000,9.993083984375,-2.247419445827603,2.4338804673328993,2.8789541388407347
1740240353417147100,10.003147216796876,-2.1677911978393793,2.4140628371849653,2.7227169906854627
1740240353427210000,10.0132099609375,-1.788792465263605,2.470683426812291,2.9510420544520017
1740240353437273000,10.023273193359374,-1.1583037741720676,2.3416072573050855,3.2854996345117686
1740240353447336000,10.0333359375,-0.978286814239621,2.2610861521303653,3.3361493330359457
1740240353457400000,10.043400146484375,-1.1911743626385927,2.2889076405137776,3.1994808087036013
1740240353467463000,10.053462890625,-1.414236099049449,2.075176627027988,2.943900658264756
1740240353477526000,10.063526123046875,-1.5440595797926187,1.9000854330599306,2.8364178964063522
1740240353487589000,10.073589111328126,-1.676899778008461,2.082504777958989,2.7388649924099444
1740240353497652000,10.08365185546875,-1.7866092760056256,2.331122980430722,2.7311381975501776
1740240353507715800,10.0937158203125,-1.491380129006505,2.4208336464941502,2.8592376309797167
1740240353517779200,10.103779296875,-0.7089771213948727,2.2069746227145193,2.6122949605047703
1740240353527842000,10.113842041015625,-0.1564309171617031,1.697748504769802,2.254137648166716
1740240353537905000,10.12390478515625,-0.35978958971500397,1.3584212728470564,2.252343458226323
1740240353547968300,10.13396826171875,-1.2046306410610674,1.609438353154063,2.179383143694699
1740240353558032100,10.1440322265625,-1.851613370835781,1.9769483079880474,2.102555632340908
1740240353568095000,10.154094970703126,-2.0993933689177036,2.150879810526967,2.0576322025090454
1740240353578158000,10.164157958984376,-2.3219413105875253,2.273259405004978,1.9545014983803033
1740240353588221200,10.17422119140625,-2.466558455836773,2.3763480235576626,1.8689906220942734
1740240353598284000,10.184283935546874,-2.1348995665848256,2.2719453997969628,1.7688246129900216
1740240353608348200,10.19434814453125,-2.0517793848276136,2.0091145475775,1.6877251234054564
1740240353618411000,10.204410888671875,-2.3406617931485174,2.0147031613647934,1.6696090364784002
1740240353628474000,10.21447412109375,-2.379967967620492,2.3348931466192004,1.725647150042653
1740240353638537000,10.224536865234375,-1.9936253020226955,2.4566338586717844,1.9371566880866884
1740240353648600000,10.23460009765625,-1.5749673437535763,2.2296903123915195,1.9710233018532395
1740240353658664000,10.244663818359374,-1.4436124156594277,2.0829349860697985,1.9177888475328684
1740240353668727000,10.25472705078125,-1.8797744664371012,2.19850665409863,2.0313298865169287
1740240353678790100,10.2647900390625,-2.538015672329068,2.4521423924714325,2.182161083975434
1740240353688853000,10.27485302734375,-2.9796462176457044,2.8116467355042696,2.322303129637241
1740240353698915800,10.284915771484375,-3.0737171247452495,2.96884746799469,2.0883786384284497
1740240353708980000,10.29497998046875,-2.8629309325397014,2.6742519427239895,1.7971119653195142
1740240353719043000,10.30504296875,-2.363683772295713,2.4472984595716,1.6856144148617982
1740240353729106000,10.31510595703125,-2.2445897753596307,2.562321261546016,1.74831257083714
1740240353739169000,10.3251689453125,-2.3268331742823123,2.7619740653187037,1.69806940728724
1740240353749232000,10.335232177734374,-2.1988284333989023,2.765189520233869,1.6360586490541695
1740240353759296000,10.3452958984375,-1.9493261415690182,2.775406378343701,1.726708057272434
1740240353769359000,10.355359130859375,-1.8671081693485378,2.7478894258648157,1.7481588415801523
1740240353779422000,10.365421875,-1.950546331013739,2.7208915288239717,1.7869190726071595
1740240353789485000,10.375485107421875,-1.7864917871057986,2.684730082118511,1.8346674967318772
1740240353799548200,10.385548095703125,-1.6981684837475417,2.742718745228648,1.7365373773694037
1740240353809612000,10.395612060546876,-1.865988517668843,2.8389965147227048,1.6335680012822151
1740240353819675000,10.4056748046875,-1.74160781250149,2.850554850569367,1.525981486788392
1740240353829738200,10.41573828125,-1.5810048703521489,2.8072926319479943,1.4877642765969037
1740240353839801300,10.42580126953125,-1.5946704076111315,2.907508325412869,1.6823159578382967
1740240353849864200,10.4358642578125,-1.7892352405950427,3.143223207169771,1.6911580204635857
1740240353859928300,10.44592822265625,-1.9279609897181391,3.2925919308602807,1.578287428086996
1740240353869991400,10.455991455078125,-1.736393000462651,3.2816730619609356,1.4382739772409199
1740240353880054300,10.46605419921875,-1.42904203851521,3.2438989193618295,1.4716870020210742
1740240353890117400,10.476117431640626,-1.107568297060579,3.325807387241721,1.5567010347008705
1740240353900180200,10.48618017578125,-1.0556538392975925,3.3761183553308247,1.6084779836893082
1740240353910244400,10.496244384765625,-0.9498118303835391,3.3910645800501107,1.6067963142126798
1740240353920307500,10.506307373046875,-1.0651432599157094,3.467159393215179,1.7030816824913024
1740240353930370300,10.516370361328125,-1.172276623814553,3.5593384952187535,1.7217279307723043
1740240353940433200,10.52643310546875,-1.1593962455838918,3.542528814715147,1.5334195278346539
1740240353950496300,10.536496337890625,-1.1856915473133325,3.293893076586723,1.2396417486876248
1740240353960560400,10.546560302734376,-0.9833636791124939,3.084249624675512,0.9096335492521523
1740240353970623200,10.556623291015624,-0.758984722623229,2.98628434048593,0.7162438975274562
1740240353980686000,10.56668603515625,-0.7493551628820597,2.975931873297691,0.6100029524236917
1740240353990749400,10.57674951171875,-0.6544254469960927,2.990173164618015,0.4975409408479929
1740240354000812300,10.586812255859375,-0.6748211692929268,2.8732828152060508,0.5272586182415485
1740240354010876200,10.596876220703125,-0.6329978974334896,2.9171090974509712,0.47839960252642627
1740240354020939300,10.606939208984375,-0.5641542244404554,3.153670951426029,0.5171744466006756
1740240354031002400,10.61700244140625,-0.5409637568585575,3.110931295374036,0.49030514437556266
1740240354041065200,10.627065185546876,-0.24946079077571628,2.9426439362019297,0.312992767226696
1740240354051128300,10.63712841796875,0.1302456516779959,2.9229712674826382,0.28636019636690613
1740240354061191400,10.64719140625,0.2650432675719261,2.960057427817583,0.15771452723145485
1740240354071255300,10.65725537109375,0.5981453413695097,2.7297598949342965,-0.014100421544909477
1740240354081318400,10.667318359375,1.04496264167428,2.554494513443112,-0.10177578238844871
1740240354091381200,10.67738134765625,1.2347270886391402,2.3951333880484103,-0.016177812340855597
1740240354101444400,10.6874443359375,1.0693953644022345,2.38498842613101,0.1101718548119068
1740240354111507200,10.697507080078125,1.070628997850418,2.3029583776980638,-0.08486614864170551
1740240354121571300,10.7075712890625,1.1433525810167193,2.0850158839970825,-0.24963468603789804
1740240354131634200,10.71763427734375,1.0148889904499054,1.9183511575907468,-0.2626426361709833
1740240354141697300,10.727697265625,0.893956964431703,1.9645248797446488,-0.17635843742489812
1740240354151760400,10.737760498046875,0.8378332184106111,2.0913106002271173,-0.1787830342233181
1740240354161823200,10.7478232421875,1.0916244396060704,2.0510189218491313,-0.33651918876469133
1740240354171887400,10.757887451171875,1.5703642338722943,1.855574675682187,-0.7589870607107877
1740240354181950200,10.7679501953125,1.7283312745600938,1.6918617848187685,-1.070284129935503
1740240354192013300,10.778013427734376,1.4970222265467046,1.5597762043625116,-1.3311223470330238
1740240354202076200,10.788076171875,1.3861296562448142,1.4301415241897106,-1.5431751981735229
1740240354212139300,10.79813916015625,1.3497522287011146,1.2002905660301446,-1.7164140422731637
1740240354222203100,10.808203125,1.1310773290723561,0.8704740897744894,-1.8843372443079947
1740240354232266200,10.818266357421875,0.5685995134115219,0.8553490013569592,-1.8431015630781649
1740240354242329300,10.828329345703125,-0.0024479776740074155,1.2744704854846,-1.8125187932878732
1740240354252392200,10.83839208984375,-0.22861761697232721,1.5752800629645585,-1.7780413541465996
1740240354262455300,10.848455322265625,-0.06467676257193088,1.6514502794533967,-1.6592688442498444
1740240354272519400,10.85851953125,0.5062888954490423,1.5074007049590348,-1.7954267887115478
1740240354282582300,10.868582275390626,0.6743260792523622,1.157860706579685,-2.030322170779109
1740240354292645000,10.87864501953125,0.5125099619209766,0.9409650915831327,-2.1191250743478536
1740240354302708500,10.88870849609375,0.3976157547622919,0.8108096024066209,-2.2791648296564815
1740240354312771300,10.898771240234375,0.0646978053599596,0.525295793735981,-2.479424951672554
1740240354322834200,10.908834228515625,-0.23616321004629134,0.14220657697618005,-2.727675489875674
1740240354332898300,10.918898193359375,-0.2389753448575735,0.21936054380536077,-2.738735228550434
1740240354342961400,10.92896142578125,-0.5527876117736101,0.3052414224475622,-2.748404681910574
1740240354353024300,10.939024169921876,-1.1284265223026275,0.48885085391402244,-2.905731378868222
1740240354363087000,10.949087158203126,-1.7994348553091286,0.803679604396224,-2.7649469436496497
1740240354373150500,10.959150390625,-1.8200170400887727,0.9344880045235157,-2.606578920945525
1740240354383214300,10.96921435546875,-1.3436971664458512,0.7627227401077747,-2.8591914537504315
1740240354393277400,10.97927734375,-0.5219955831468105,0.39658465814888477,-3.228056038063764
1740240354403340300,10.98934033203125,-0.11326514465212821,0.06693944680690765,-3.6327632123917337
1740240354413403400,10.9994033203125,-0.23604046044945715,-0.1638736343830824,-3.9209126302629707
1740240354423466200,11.00946630859375,-0.31036826394200323,-0.36959611345827575,-3.9849125164866446
1740240354433530400,11.0195302734375,-0.08633622119426727,-0.540950458985567,-3.9849467110171912
1740240354443593200,11.02959326171875,0.1223065292418003,-0.5131359848648309,-3.886539820539951
1740240354453656300,11.03965625,0.14142857834100722,-0.4236424686834216,-3.66609791123867
1740240354463719400,11.049719482421875,-0.13239070088267327,-0.1872568480581045,-3.307097718335688
1740240354473782300,11.0597822265625,0.03887771992683411,0.011330664570629596,-3.225093096604943
1740240354483846100,11.06984619140625,-0.5044879835069179,-0.4412061824247241,-3.463131745134294
1740240354493909200,11.0799091796875,-0.5172159476548434,-0.4891729254752397,-3.4886993171110747
1740240354503972400,11.089972412109375,-0.47151685727536674,-0.4741466212570667,-3.7239290456995366
1740240354514035200,11.10003515625,-0.8588041102468967,-0.3419984969586134,-3.86242770806849
1740240354524098300,11.110098388671876,-1.3371435070186852,-0.2067223037675023,-4.061359504090249
1740240354534161400,11.120161376953124,-1.5491700546741485,-0.23030776201635597,-4.019462144081294
1740240354544225300,11.130225341796875,-1.12471071664989,0.014290098898112773,-3.6070679223820563
1740240354554288400,11.140288330078125,-0.983859645935893,0.06900982334017754,-2.9746786583662033
1740240354564351200,11.150351318359375,-0.20656711320579052,0.5768900796338915,-2.6510253809154034
1740240354574414300,11.160414306640625,0.14991583617925644,0.461997333779931,-2.4260063729569317
1740240354584477200,11.170477294921875,-0.5045370833456516,0.17196020246595142,-2.271670382247865
1740240354594541300,11.180541259765626,-1.3005500986367464,0.30042437755465506,-2.157166635711491
1740240354604604200,11.190604248046874,-2.0802473544210196,0.5030728560119867,-2.032708481393754
1740240354614667300,11.200667236328124,-2.718505510470271,0.5180918537065387,-1.8658660603329538
1740240354624730400,11.21073046875,-2.8178455901443957,0.5662891906425357,-1.7383078941732644
1740240354634793200,11.220793212890625,-2.6030682824760674,0.5474602792710066,-1.6723960368484259
1740240354644857300,11.230857421875,-2.418538229033351,0.4238721857860684,-1.672237046894431
1740240354654920400,11.24092041015625,-2.238096906208992,0.3054635407656431,-1.6590899805516004
1740240354664983300,11.2509833984375,-2.294455337768793,0.21847528540343045,-1.570695073261857
1740240354675046100,11.261046142578126,-2.1220120279610155,0.15160247409194708,-1.473487329441309
1740240354685109500,11.271109619140624,-1.75086751601696,0.060902504730224606,-1.3616191921055316
1740240354695172400,11.28117236328125,-1.6564210536032915,0.10760697275996207,-1.1044529415190218
1740240354705236200,11.291236328125,-1.5381366194844246,0.10295008686482905,-1.0465209770321846
1740240354715299300,11.30129931640625,-1.6315572459816932,0.018026070556044577,-1.3679846354842184
1740240354725362200,11.311362060546875,-1.9763053339093923,-0.2662476749256253,-1.8086907594323156
1740240354735425300,11.32142529296875,-2.1485399694025515,-0.47997985745519395,-1.924452981597185
1740240354745488400,11.33148828125,-2.2873510587215424,-0.5598287624567747,-1.9032950427561997
1740240354755552300,11.34155224609375,-2.5817151133239267,-0.5275815665856003,-2.0909172169953583
1740240354765615000,11.351614990234374,-2.8948142635345455,-0.39886984647661444,-2.0940812339842316
1740240354775678500,11.361678466796874,-2.8963801976770163,-0.2168359937638044,-2.1185539964616296
1740240354785741300,11.3717412109375,-3.136892835104465,-0.12391396443843841,-2.3180858042031525
1740240354795804200,11.38180419921875,-2.999288198965788,-0.05715513489544391,-2.4945623150497673
1740240354805867300,11.3918671875,-2.7173183465123176,-0.0905132146179676,-2.641079156440496
1740240354815931400,11.401931396484375,-2.530267250159383,-0.0425245519965887,-2.646859493407607
1740240354825994200,11.411994140625,-2.430423312616348,0.11627134073078632,-2.5069553481549023
1740240354836057000,11.42205712890625,-2.476612232339382,0.165931443695724,-2.498842768847942
1740240354846120200,11.4321201171875,-2.8246646225094794,0.14796762472093106,-2.527901690071821
1740240354856183000,11.44218310546875,-2.8251678958564996,0.10398790547996759,-2.4160171861231325
1740240354866247200,11.4522470703125,-2.9221874236285683,0.15306114846765995,-2.3370488633483646
1740240354876310000,11.46231005859375,-3.007249387103319,0.390146149533987,-2.090544292029738
1740240354886373000,11.472373046875,-2.598230779317021,0.6428758789777755,-1.7542758631557225
1740240354896436000,11.48243603515625,-2.2772680561244485,0.7861176442205905,-1.3606681749910114
1740240354906499000,11.4924990234375,-1.9926292767226694,0.9808037654966115,-1.0701713172107934
1740240354916562200,11.502562255859376,-2.093191007146239,1.0908952485486865,-1.0600316159904002
1740240354926626300,11.512626220703124,-2.1768337514728304,1.0498720410257578,-1.1918348723739385
1740240354936689200,11.522689208984374,-2.1274211935281753,1.1050678585469722,-1.4347072246700525
1740240354946752000,11.532751953125,-2.074134424498677,1.171423075725138,-1.492711669871211
1740240354956815000,11.542815185546875,-1.7385060470938682,1.3086889814287423,-1.310823070847988
1740240354966878200,11.552878173828125,-1.2129355280697345,1.411979552294314,-1.1708131271332503
1740240354976941000,11.562941162109375,-1.019945689317584,1.5697449329301714,-0.9769675483345985
1740240354987005000,11.5730048828125,-1.4098539384424686,1.796043459305167,-0.7671130840212106
1740240354997068300,11.583068359375,-1.9255577279686926,2.052431711256504,-0.5618120452284813
1740240355007131100,11.593131103515624,-2.08796713501811,2.4081381233111023,-0.394174674397707
1740240355017194000,11.603194091796874,-1.8645441640794276,2.5794781480520963,-0.41439094847440716
1740240355027257000,11.613257080078125,-1.5181389565944672,2.6007828018873926,-0.4454091870725155
1740240355037321200,11.6233212890625,-1.0809095688462256,2.6602935599982738,-0.43486032052934165
1740240355047384000,11.633384033203125,-0.20927695668637752,2.748498497673869,-0.28990765971541405
1740240355057447200,11.643447265625,0.3515525072455406,2.952474425342679,0.2960480621665716
1740240355067510000,11.653510009765625,0.5228045614421367,3.241587719810009,0.9226777397423982
1740240355077573000,11.663572998046876,0.4296422936201095,3.673748718252778,1.6732026770561932
1740240355087636000,11.673635986328126,0.06850888808071613,3.705280751591921,2.224218018460274
1740240355097700000,11.6837001953125,-0.3397726376026869,3.784305480729043,2.5495342606872318
1740240355107763000,11.693762939453125,-0.674096946671605,3.7033129586502906,2.8977351194173098
1740240355117826000,11.703825927734375,-0.4001940808176994,3.72179612532407,3.2831144929409026
1740240355127889200,11.71388916015625,0.3079600337564945,3.5889813538104294,3.491131220433116
1740240355137952000,11.723951904296875,0.880334974053502,3.373355904880166,3.7402538652956485
1740240355148015000,11.73401513671875,1.0604016183465719,3.056012248967588,4.032978335997462
1740240355158079200,11.744079345703126,1.1640484553039074,2.73256004704684,4.243863896924257
1740240355168142000,11.75414208984375,0.9281646467208862,2.595383573192358,4.55429733505696
1740240355178205000,11.764204833984374,0.8140852630764246,2.5517563206508753,5.049713831096887
1740240355188268300,11.774268310546875,0.7341068864762783,2.4123589558765293,5.328167199862003
1740240355198331100,11.7843310546875,0.37136663026213645,2.2783073360443113,5.465886986812949
1740240355208395000,11.79439501953125,0.5738216319739818,2.1325854444235564,5.631778390759229
1740240355218458000,11.8044580078125,0.8470750940084457,1.9549206005752084,5.614045750191807
1740240355228521200,11.814521240234376,0.8733762409567832,1.7363626053243875,5.521645114392042
1740240355238584000,11.824583984375,0.5518605600565671,1.62979140535295,5.410914456653595
1740240355248647000,11.83464697265625,-0.30604104839265345,1.541015389791131,5.136110842567682
1740240355258710300,11.844710205078124,-1.303952600556612,1.3667577240377664,4.845968205052614
1740240355268774100,11.854774169921875,-2.2157903818547724,1.2463438766747712,4.693716327141225
1740240355278837200,11.864837158203125,-2.5121581774950026,1.3315055011317134,4.848968555912375
1740240355288900000,11.874900146484375,-2.2909224874675274,1.6787468671798704,5.183013463518023
1740240355298963000,11.884962890625,-1.7106939110606907,1.9858289490580558,5.4093537832081315
1740240355309026000,11.895026123046875,-0.8844108451902866,1.908909960028529,5.296024341148137
1740240355319090200,11.905090087890626,-0.312914441293478,1.6605054003074764,5.127168242177367
1740240355329153000,11.915153076171874,0.017341595423221588,1.2778025525167584,4.813687399172783
1740240355339216000,11.9252158203125,0.02316167987883091,1.0160656330138444,4.459896173089742
1740240355349279200,11.935279296875,-0.19209493573904035,0.9764438167214393,4.223068361654877
1740240355359342000,11.945342041015625,-0.7414613408923149,0.9303262086689472,3.876407425843179
1740240355369405000,11.955405029296875,-1.3864222094506025,0.903822817146778,3.655256783750653
1740240355379469000,11.965468994140625,-1.71852825794816,0.9993164505258202,3.6344074724674225
1740240355389532200,11.9755322265625,-1.553937999728322,1.1251678127676248,3.838161866340041
1740240355399595000,11.985594970703126,-1.1242314087003469,1.4421581251978874,4.44160531411767
1740240355409658000,11.995658203125,-0.6532365294724702,1.6313701989769935,4.839481765642762
1740240355419721200,12.00572119140625,-0.3098825262516737,1.6057140719339251,4.984152686905861
1740240355429784000,12.0157841796875,0.21176877350211143,1.721672985714674,5.11190696015954
1740240355439848200,12.02584814453125,0.9061293405234813,1.7444702161952852,5.086925663638115
1740240355449911000,12.0359111328125,0.9959119027793407,1.3317778883323073,4.865614862547814
1740240355459974100,12.04597412109375,0.5911766714006662,1.0681646535634994,4.499935630272328
1740240355470037000,12.056037109375,0.037166824355721474,1.2781000741586088,4.330310008233785
1740240355480100000,12.06610009765625,-0.28565877009928226,1.222794658783078,4.070177601318061
1740240355490164000,12.0761640625,-0.7352665779054165,0.9042170771613717,3.51993762820065
1740240355500227000,12.08622705078125,-1.2706979812085628,0.7071762094527483,3.341407399694621
1740240355510290200,12.096290283203125,-1.3411410522222518,0.7543117623761296,3.517620875690877
1740240355520353000,12.10635302734375,-1.2748013248741625,0.9717299399420618,3.7961905643120404
1740240355530416000,12.116416015625,-1.0552262615352868,1.252782385289669,4.05896091851592
1740240355540479200,12.126479248046875,-0.7036001045316458,1.3871750736445188,4.343793174663186
1740240355550543000,12.136543212890626,-0.16411854905486106,1.4001231102839111,4.509185981437564
1740240355560606000,12.14660595703125,0.11789221993088722,1.3432409471109508,4.438838187491894
1740240355570669000,12.1566689453125,-0.1090957500129938,1.2528116113841532,4.20672512961924
1740240355580732200,12.166732177734374,-0.5698503902554511,1.0775623042449354,3.8035949953496453
1740240355590795000,12.176794921875,-1.0892273153364658,1.0599193877875803,3.429564698836207
1740240355600859100,12.186859130859375,-1.466239842531085,0.957676864670217,3.116822691500187
1740240355610922000,12.196921875,-1.731725008651614,0.9041898968935013,2.780449633207917
1740240355620985000,12.206985107421875,-1.6897347096621989,0.8282818384721875,2.7895407021582126
1740240355631048200,12.217048095703126,-1.3795324499368666,0.8687786840334534,2.9398084205150603
1740240355641111000,12.227111083984376,-1.2840560599535702,0.9496145542457699,3.018607816463709
1740240355651174100,12.237174072265624,-1.377099669831991,0.9778878780499101,3.035256753447652
1740240355661238300,12.24723828125,-1.2821727304250001,0.9678943073019385,3.03020589979887
1740240355671301000,12.257301025390625,-1.09899233802557,0.9795315536037087,3.029750557246804
1740240355681364000,12.267364013671875,-1.1850550029754638,0.9131237294554709,2.8050486524134874
1740240355691427000,12.277427001953125,-1.6695979305624962,0.7924152830600738,2.4680197605609893
1740240355701490200,12.287490234375,-1.9382658183723687,0.6121151222720742,2.210757648384571
1740240355711554000,12.297553955078126,-1.9647382302343843,0.5821621748179197,2.017733322840929
1740240355721617000,12.307616943359376,-2.1098709237903357,0.5687573343217373,1.9222142627596854
1740240355731680300,12.31768017578125,-1.9879718063056468,0.5889715625718236,1.9555349330812692
1740240355741743000,12.3277431640625,-1.613718806952238,0.6205044726938009,2.0761475178867577
1740240355751806000,12.337805908203125,-1.626076184222102,0.8745522989988327,2.1977502827733755
1740240355761869300,12.347869384765625,-1.9272721306711433,1.0322376001358031,2.197029567283392
1740240355771933200,12.35793310546875,-2.060124019324779,1.1379375702306627,2.1050673229008914
1740240355781996000,12.36799609375,-2.2037498154491186,1.216099545058608,1.915191232255101
1740240355792059100,12.37805908203125,-1.924457073250413,1.1902212996974586,1.6368214501202105
1740240355802122200,12.388122314453126,-1.79381876899302,1.0369257579520343,1.3485732480496166
1740240355812185000,12.39818505859375,-2.1885253583103417,1.0515496188491582,1.197500058528781
1740240355822248000,12.408248046875,-2.4033500122517344,1.2195637140378355,1.1078893457084893
1740240355832312000,12.41831201171875,-2.8395547331273554,1.2861965791136025,1.086416349568963
1740240355842374700,12.428374755859375,-2.840972783231735,1.236217327196896,0.9940250661194324
1740240355852437800,12.438437744140625,-2.634142050653696,1.2983122565820813,0.9926502706348895
1740240355862500600,12.44850048828125,-2.4092215346336365,1.3738269317716358,1.0660270570129156
1740240355872563700,12.458563720703125,-2.135196503704786,1.4106407049059868,1.0228887570321559
1740240355882627800,12.4686279296875,-1.8894903892874717,1.4658341843396425,0.9995850383341311
1740240355892690700,12.478690673828124,-1.8667688543915748,1.5033865008816123,0.85689564627707
1740240355902753500,12.48875341796875,-1.958923990997672,1.479250130751729,0.6347130307883024
1740240355912816600,12.498816650390625,-2.018314922121167,1.3582377329736948,0.4342886581212282
1740240355922879700,12.508879638671875,-1.8777339005202054,1.2339485054820776,0.07192132687270641
1740240355932942600,12.518942626953125,-1.6317752726465462,1.161926640844345,-0.12547288431823253
1740240355943006700,12.5290068359375,-1.4661422273755074,1.3104247191801666,-0.3078203330248594
1740240355953069600,12.539069580078126,-1.5915613356798886,1.4014330238386987,-0.46034547491967676
1740240355963132700,12.549132568359376,-1.8446721733957527,1.4494146721974015,-0.6281809986710548
1740240355973195500,12.559195556640624,-1.841256811994314,1.658339162184298,-0.5710714564830064
1740240355983258600,12.569258544921874,-1.7893693883687256,1.7483149089246988,-0.6496651007264852
1740240355993322500,12.579322509765625,-1.5045172584772109,1.6888216864705086,-0.8686047887712717
1740240356003385900,12.5893857421875,-1.3370868083953857,1.6208511430501937,-1.166826103323698
1740240356013448700,12.59944873046875,-1.2668915746629237,1.596771179282665,-1.4104016354531048
1740240356023511600,12.609511474609375,-1.144328440311551,1.5631556176677346,-1.690560639092326
1740240356033574700,12.61957470703125,-1.0056126280605793,1.5693758073568342,-1.8194909703880549
1740240356043637800,12.6296376953125,-0.8174199604570865,1.5057538145348428,-1.8639058661758898
1740240356053701600,12.63970166015625,-0.6413584601521491,1.4147586616188288,-1.8004454936563967
1740240356063764500,12.649764404296874,-0.7392424957990646,1.3306865859642625,-1.8303730144083499
1740240356073827800,12.659827880859375,-1.0989543441027403,1.4428347092851996,-1.9307412680864333
1740240356083890700,12.669890625,-1.175229774531722,1.867005585756898,-2.0123644892841575
1740240356093953500,12.67995361328125,-1.124932250446081,1.4372434651494026,-2.684537774416804
1740240356104017000,12.690016845703125,-1.5969178942769764,1.1892913253709674,-3.182605369487405
1740240356114080800,12.700080810546876,-1.3698714721441267,1.2566919599488378,-3.648301557785272
1740240356124143600,12.7101435546875,-1.0084732781887054,1.17502811447978,-4.036705832087994
1740240356134206700,12.720206787109374,-0.6128793846428394,1.0502443814694882,-4.39995988304317
