time,seconds_elapsed,z,y,x
1740240343490349800,0.033349853515625,0.13297733664512634,0.21344301104545593,0.3113492429256439
1740240343500370700,0.04337060546875,0.11512143909931183,0.24578134715557098,0.29089227318763733
1740240343510392600,0.053392578125,0.08791910856962204,0.2852640450000763,0.2350631058216095
1740240343520413700,0.06341357421875,0.0702308863401413,0.29546672105789185,0.16714902222156525
1740240343530435800,0.073435791015625,0.05482982471585274,0.26633360981941223,0.10297616571187973
1740240343540456700,0.083456787109375,0.04264356940984726,0.23850858211517334,0.04520709067583084
1740240343550477800,0.093477783203125,0.030471058562397957,0.17969106137752533,-0.0109126390889287
1740240343560499700,0.103499755859375,0.013162626884877682,0.09227285534143448,-0.06060972064733505
1740240343570520600,0.1135205078125,-0.008137336000800133,0.009364921599626541,-0.08905068039894104
1740240343580542700,0.123542724609375,-0.03582482039928436,-0.045080557465553284,-0.10375751554965973
1740240343590563800,0.133563720703125,-0.042640648782253265,-0.05834523215889931,-0.11302211880683899
1740240343600584700,0.143584716796875,-0.047478336840867996,-0.03829745948314667,-0.11139184236526489
1740240343610606600,0.153606689453125,-0.04783253371715546,-0.0022411877289414406,-0.10433739423751831
1740240343620627700,0.163627685546875,-0.04227917268872261,0.0545315146446228,-0.06885375082492828
1740240343630648600,0.173648681640625,-0.034907009452581406,0.073082834482193,-0.009465259499847889
1740240343640670700,0.183670654296875,-0.031119711697101593,0.04089954122900963,0.05880177766084671
1740240343650691800,0.19369189453125,-0.028979063034057617,0.016648530960083008,0.10127733647823334
1740240343660713700,0.203713623046875,-0.023384079337120056,-0.004045536275953054,0.12336335331201553
1740240343670734600,0.213734619140625,-0.009328980930149555,-0.033437781035900116,0.11699067801237106
1740240343680755700,0.223755615234375,0.013464318588376045,-0.06708447635173798,0.0908956378698349
1740240343690777900,0.23377783203125,0.027654705569148064,-0.10335034132003784,0.06865478307008743
1740240343700798700,0.243798828125,0.031642407178878784,-0.133428692817688,0.06328776478767395
1740240343710820600,0.253820556640625,0.03167117014527321,-0.13309073448181152,0.07058429718017578
1740240343720841700,0.263841796875,0.036073725670576096,-0.07989230751991272,0.07667434960603714
1740240343730862600,0.273862548828125,0.04380061849951744,-0.0017109494656324387,0.0767209604382515
1740240343740884700,0.283884765625,0.06076893210411072,0.09072674810886383,0.08644752204418182
1740240343750905900,0.29390576171875,0.07399072498083115,0.13665589690208435,0.09436456859111786
1740240343760926700,0.3039267578125,0.07766500860452652,0.16765689849853516,0.09819718450307846
1740240343770948600,0.313948486328125,0.08717329800128937,0.1856667846441269,0.1183309480547905
1740240343780969700,0.3239697265625,0.09188210219144821,0.16084125638008118,0.1551983505487442
1740240343790992000,0.333991943359375,0.09248664230108261,0.1299259513616562,0.18743911385536194
1740240343801012700,0.3440126953125,0.09191764146089554,0.12404625117778778,0.2015475332736969
1740240343811033600,0.35403369140625,0.08412390202283859,0.10889286547899246,0.20214009284973145
1740240343821055700,0.3640556640625,0.07897920906543732,0.1013188362121582,0.18135836720466614
1740240343831076400,0.374076416015625,0.07325394451618195,0.12022115290164948,0.13431896269321442
1740240343841098200,0.38409814453125,0.06672132760286331,0.1415494978427887,0.08477308601140976
1740240343851119400,0.394119384765625,0.05907033756375313,0.12549781799316406,0.06076868996024132
1740240343861140200,0.40414013671875,0.051859937608242035,0.10940103232860565,0.06657229363918304
1740240343871162400,0.414162353515625,0.04236337170004845,0.10491281002759933,0.08828770369291306
1740240343881183500,0.42418359375,0.03797721862792969,0.11981131881475449,0.11105465143918991
1740240343891204400,0.434204345703125,0.036874670535326004,0.1388784795999527,0.12150542438030243
1740240343901226200,0.444226318359375,0.033656537532806396,0.15383821725845337,0.11551421880722046
1740240343911247400,0.454247314453125,0.03397398814558983,0.14588123559951782,0.09557273238897324
1740240343921269500,0.46426953125,0.03301415219902992,0.11774523556232452,0.07963281124830246
1740240343931290400,0.474290283203125,0.02685372903943062,0.10732375830411911,0.09490257501602173
1740240343941311200,0.484311279296875,0.007849759422242641,0.08697820454835892,0.14612311124801636
1740240343951333400,0.49433349609375,-0.008209368214011192,0.07110869139432907,0.20447616279125214
1740240343961354200,0.504354248046875,-0.029014883562922478,0.06251312792301178,0.25114917755126953
1740240343971376400,0.51437646484375,-0.043916333466768265,0.0441058911383152,0.28044554591178894
1740240343981397500,0.5243974609375,-0.05031510442495346,0.015611805021762848,0.277680367231369
1740240343991418400,0.53441845703125,-0.0527055561542511,-0.0014278991147875786,0.24926204979419708
1740240344001440300,0.544440185546875,-0.0543535090982914,-0.029921719804406166,0.22916078567504883
1740240344011461400,0.55446142578125,-0.05750589445233345,-0.052166834473609924,0.21669213473796844
1740240344021482200,0.564482177734375,-0.06951836496591568,-0.05813632532954216,0.19153377413749695
1740240344031504400,0.57450439453125,-0.09304952621459961,-0.03507841005921364,0.1763889044523239
1740240344041525200,0.584525146484375,-0.10223439335823059,-0.03006599098443985,0.1978808343410492
1740240344051547400,0.59454736328125,-0.0943831279873848,-0.0406416691839695,0.2734437584877014
1740240344061568300,0.604568359375,-0.08093392848968506,-0.044848017394542694,0.3706243932247162
1740240344071589000,0.614589111328125,-0.06600238382816315,-0.04908350855112076,0.43983194231987
1740240344081611500,0.624611572265625,-0.06049894914031029,-0.048832230269908905,0.46586674451828003
1740240344091632400,0.63463232421875,-0.057653095573186874,-0.05270873010158539,0.4768480062484741
1740240344101654300,0.644654296875,-0.05411984398961067,-0.06210900843143463,0.4872247874736786
1740240344111675100,0.654675048828125,-0.04528427496552467,-0.06422249227762222,0.5097463130950928
1740240344121696300,0.6646962890625,-0.03598092496395111,-0.056839507073163986,0.5357710123062134
1740240344131718400,0.674718505859375,-0.031613871455192566,-0.054370488971471786,0.5627470016479492
1740240344141739300,0.6847392578125,-0.033106718212366104,-0.04726468771696091,0.5997704863548279
1740240344151760400,0.694760498046875,-0.04931711405515671,-0.043150100857019424,0.6486615538597107
1740240344161782300,0.7047822265625,-0.06415499001741409,-0.05870560556650162,0.6826735138893127
1740240344171803100,0.71480322265625,-0.08276782184839249,-0.08336861431598663,0.6954324245452881
1740240344181825300,0.7248251953125,-0.11219329386949539,-0.12331777811050415,0.698248028755188
1740240344191846400,0.734846435546875,-0.14427240192890167,-0.1850176304578781,0.6948948502540588
1740240344201867300,0.7448671875,-0.1675717979669571,-0.22283348441123962,0.6832391023635864
1740240344211889200,0.75488916015625,-0.1860906332731247,-0.2556939721107483,0.6757644414901733
1740240344221910300,0.76491015625,-0.19978836178779602,-0.29970231652259827,0.6777748465538025
1740240344231932400,0.774932373046875,-0.20393437147140503,-0.3431059718132019,0.6705414652824402
1740240344241953300,0.784953369140625,-0.20829902589321136,-0.36985743045806885,0.6419803500175476
1740240344251974400,0.794974365234375,-0.22662237286567688,-0.3949012756347656,0.6190811991691589
1740240344261996300,0.804996337890625,-0.25169801712036133,-0.4227893054485321,0.6189688444137573
1740240344272017200,0.81501708984375,-0.27265816926956177,-0.4333212971687317,0.6470696926116943
1740240344282038300,0.825038330078125,-0.28369125723838806,-0.44070565700531006,0.6893066167831421
1740240344292060400,0.835060302734375,-0.2952656149864197,-0.44754093885421753,0.7303509712219238
1740240344302081300,0.845081298828125,-0.32432475686073303,-0.45122694969177246,0.7605985403060913
1740240344312103200,0.855103271484375,-0.3637254238128662,-0.4501829743385315,0.7813062071800232
1740240344322124300,0.865124267578125,-0.3933480978012085,-0.4534889757633209,0.7805267572402954
1740240344332145200,0.875145263671875,-0.41170474886894226,-0.4573076665401459,0.7506234645843506
1740240344342167300,0.885167236328125,-0.4235626757144928,-0.49165263772010803,0.6945275068283081
1740240344352188400,0.8951884765625,-0.443240761756897,-0.5507354140281677,0.6254618763923645
1740240344362209300,0.905209228515625,-0.47771719098091125,-0.593923807144165,0.567915678024292
1740240344372231200,0.915231201171875,-0.5054340958595276,-0.6408535242080688,0.5097490549087524
1740240344382252300,0.925252197265625,-0.5203822255134583,-0.6546440124511719,0.4528884291648865
1740240344392274400,0.9352744140625,-0.5234374403953552,-0.6561471223831177,0.40519121289253235
1740240344402295300,0.94529541015625,-0.5296585559844971,-0.654731810092926,0.36581796407699585
1740240344412316400,0.95531640625,-0.5510466694831848,-0.6329887509346008,0.3404870331287384
1740240344422338300,0.96533837890625,-0.5769792199134827,-0.60834801197052,0.32763347029685974
1740240344432359200,0.975359130859375,-0.594818651676178,-0.6173556447029114,0.31731104850769043
1740240344442380500,0.985380615234375,-0.6060885190963745,-0.6501814723014832,0.27850547432899475
1740240344452402400,0.99540234375,-0.623156726360321,-0.7018648982048035,0.20364321768283844
1740240344462423300,1.00542333984375,-0.6433062553405762,-0.7617718577384949,0.1010235846042633
1740240344472445200,1.015445068359375,-0.6635739803314209,-0.7952712178230286,0.0005401222733780742
1740240344482466300,1.02546630859375,-0.6667487025260925,-0.8212319016456604,-0.07502633333206177
1740240344492487400,1.0354873046875,-0.6402624845504761,-0.843368649482727,-0.11967235803604126
1740240344502509300,1.04550927734375,-0.5944206714630127,-0.8493914604187012,-0.14388884603977203
1740240344512530400,1.055530517578125,-0.5490601062774658,-0.8361473083496094,-0.1658996045589447
1740240344522551300,1.06555126953125,-0.5199800133705139,-0.7825644016265869,-0.1866742968559265
1740240344532573200,1.0755732421875,-0.4999016225337982,-0.698646605014801,-0.19801004230976105
1740240344542594600,1.085594482421875,-0.4735168516635895,-0.5682550668716431,-0.19740886986255646
1740240344552616400,1.095616455078125,-0.4417959451675415,-0.4172450304031372,-0.20214210450649261
1740240344562637300,1.10563720703125,-0.4067910611629486,-0.3015574514865875,-0.21522194147109985
1740240344572658200,1.115658203125,-0.3945935070514679,-0.2614070773124695,-0.23484624922275543
1740240344582680300,1.125680419921875,-0.4091333746910095,-0.27523672580718994,-0.2771397531032562
1740240344592701400,1.135701416015625,-0.43517589569091797,-0.318754643201828,-0.34152141213417053
1740240344602722300,1.145722412109375,-0.45853209495544434,-0.3608006238937378,-0.420217901468277
1740240344612744400,1.155744384765625,-0.46948301792144775,-0.3927958309650421,-0.5062228441238403
1740240344622765300,1.165765380859375,-0.4730663001537323,-0.3980671763420105,-0.5867291688919067
1740240344632787200,1.175787109375,-0.47464635968208313,-0.3813267946243286,-0.6530413031578064
1740240344642808300,1.185808349609375,-0.47826671600341797,-0.37647852301597595,-0.7056688666343689
1740240344652829400,1.195829345703125,-0.48678961396217346,-0.3595820963382721,-0.7309462428092957
1740240344662851300,1.205851318359375,-0.48631614446640015,-0.3096323609352112,-0.7203339338302612
1740240344672872200,1.2158720703125,-0.46614721417427063,-0.26561030745506287,-0.6949824690818787
1740240344682893300,1.225893310546875,-0.4435972273349762,-0.20834390819072723,-0.669816792011261
1740240344692915500,1.23591552734375,-0.4396245777606964,-0.11516283452510834,-0.6451276540756226
1740240344702936300,1.245936279296875,-0.4426913559436798,-0.07145281881093979,-0.6474705338478088
1740240344712958200,1.255958251953125,-0.449031263589859,-0.06333950161933899,-0.6675118803977966
1740240344722979300,1.265979248046875,-0.4575774073600769,-0.12376996874809265,-0.7231945991516113
1740240344733000200,1.276000244140625,-0.4600147306919098,-0.21903817355632782,-0.8036113977432251
1740240344743022300,1.286022216796875,-0.4450089633464813,-0.34112340211868286,-0.8973031640052795
1740240344753043500,1.29604345703125,-0.4288156032562256,-0.46987178921699524,-0.9690913558006287
1740240344763064300,1.306064208984375,-0.43281739950180054,-0.5588783621788025,-0.9878466129302979
1740240344773086200,1.316086181640625,-0.42919790744781494,-0.5667290687561035,-0.9923721551895142
1740240344783107300,1.326107421875,-0.4004366993904114,-0.4604491591453552,-1.0175931453704834
1740240344793129500,1.33612939453125,-0.32713958621025085,-0.31912529468536377,-1.0573253631591797
1740240344803150300,1.346150390625,-0.22626397013664246,-0.2399275004863739,-1.098564863204956
1740240344813171500,1.35617138671875,-0.12013619393110275,-0.18462243676185608,-1.1328022480010986
1740240344823193300,1.366193359375,-0.03056006133556366,-0.15651923418045044,-1.1528736352920532
1740240344833215000,1.376215087890625,0.04182519018650055,-0.14627991616725922,-1.1778242588043213
1740240344843236000,1.386236083984375,0.09308842569589615,-0.08784458786249161,-1.2044029235839844
1740240344853258200,1.39625830078125,0.1574210822582245,-0.040705837309360504,-1.2370696067810059
1740240344863279000,1.406279052734375,0.2332523763179779,0.01557648740708828,-1.261547327041626
1740240344873301000,1.416301025390625,0.31332242488861084,0.06398742645978928,-1.2667208909988403
1740240344883322000,1.426322021484375,0.4103439748287201,0.09966813772916794,-1.2685279846191406
1740240344893343000,1.436343017578125,0.5379786491394043,0.13231715559959412,-1.285157322883606
1740240344903365000,1.446365234375,0.6589886546134949,0.18712353706359863,-1.3101335763931274
1740240344913386000,1.456385986328125,0.7519809007644653,0.2855947017669678,-1.322664737701416
1740240344923407000,1.466406982421875,0.8195098638534546,0.38794124126434326,-1.3045417070388794
1740240344933429000,1.476428955078125,0.8754863142967224,0.5028278827667236,-1.2859749794006348
1740240344943449900,1.486449951171875,0.9320089817047119,0.596460223197937,-1.292905330657959
1740240344953471000,1.496470947265625,1.0253053903579712,0.6465523838996887,-1.3480641841888428
1740240344963493000,1.5064931640625,1.1288403272628784,0.6387366652488708,-1.4349095821380615
1740240344973514000,1.516513916015625,1.2038735151290894,0.5423611402511597,-1.479629635810852
1740240344983536000,1.5265361328125,1.218658208847046,0.4473176896572113,-1.457514762878418
1740240344993557000,1.536556884765625,1.2226262092590332,0.4458574652671814,-1.385169506072998
1740240345003577900,1.546577880859375,1.2276047468185425,0.4975077211856842,-1.2620571851730347
1740240345013600000,1.55660009765625,1.2404433488845825,0.6001627445220947,-1.1059041023254395
1740240345023621000,1.56662109375,1.2843266725540161,0.7478721141815186,-0.9460740089416504
1740240345033642000,1.57664208984375,1.3746784925460815,0.9383723139762878,-0.8168401122093201
1740240345043664000,1.586663818359375,1.4657701253890991,1.157946228981018,-0.7437860369682312
1740240345053685000,1.59668505859375,1.5145329236984253,1.3132820129394531,-0.6995117664337158
1740240345063707100,1.60670703125,1.5347787141799927,1.3200350999832153,-0.6400418877601624
1740240345073728000,1.61672802734375,1.546189546585083,1.251683235168457,-0.5402955412864685
1740240345083749000,1.6267490234375,1.5304843187332153,1.1998976469039917,-0.38604477047920227
1740240345093771000,1.63677099609375,1.4876524209976196,1.1539368629455566,-0.19250991940498352
1740240345103791900,1.6467919921875,1.4375656843185425,1.0958174467086792,0.023804904893040657
1740240345113813000,1.65681298828125,1.3707836866378784,1.0491588115692139,0.22669969499111176
1740240345123835100,1.666835205078125,1.3336836099624634,1.069514513015747,0.3722396492958069
1740240345133856000,1.67685595703125,1.3491421937942505,1.1596022844314575,0.45284712314605713
1740240345143878000,1.6868779296875,1.3558725118637085,1.2456989288330078,0.46443578600883484
1740240345153899000,1.69689892578125,1.0689997673034668,1.2151881456375122,0.3532927334308624
1740240345163920000,1.706919921875,1.0197895765304565,1.137290120124817,0.20431731641292572
1740240345173942000,1.71694189453125,1.712514042854309,0.8656559586524963,0.14081157743930817
1740240345183963100,1.726963134765625,2.5172598361968994,0.47392597794532776,0.1679532378911972
1740240345193984000,1.73698388671875,2.94341778755188,0.624340832233429,0.1995372623205185
1740240345204006000,1.747005859375,3.122832775115967,1.3272489309310913,0.23635125160217285
1740240345214027000,1.757027099609375,3.106367349624634,1.7130604982376099,0.496170312166214
1740240345224048000,1.767048095703125,2.6863725185394287,1.5200440883636475,0.9725773334503174
1740240345234070000,1.777070068359375,1.9959943294525146,1.198947787284851,1.443108081817627
1740240345244091100,1.787091064453125,1.3203928470611572,1.0655776262283325,1.8210039138793945
1740240345254113000,1.797113037109375,0.9510678648948669,1.1513444185256958,1.9232906103134155
1740240345264134000,1.8071337890625,0.8378801941871643,1.3305144309997559,1.7552062273025513
1740240345274155300,1.8171552734375,0.9102036356925964,1.4351489543914795,1.4521245956420898
1740240345284177200,1.82717724609375,1.1353334188461304,1.4008922576904297,1.1302989721298218
1740240345294198000,1.837197998046875,1.411214828491211,1.225412368774414,0.9313797950744629
1740240345304219000,1.847218994140625,1.6138262748718262,0.9561759829521179,0.9343997836112976
1740240345314241000,1.857240966796875,1.728027105331421,0.7493780255317688,1.0863131284713745
1740240345324262100,1.86726220703125,1.7511383295059204,0.6600831151008606,1.2792543172836304
1740240345334284000,1.877283935546875,1.6614656448364258,0.6025012731552124,1.429445505142212
1740240345344305200,1.88730517578125,1.4993473291397095,0.5303282737731934,1.5208598375320435
1740240345354326000,1.897325927734375,1.3580716848373413,0.41890665888786316,1.548479437828064
1740240345364348000,1.907347900390625,1.2540212869644165,0.2929101586341858,1.5228382349014282
1740240345374369000,1.917369140625,1.1704922914505005,0.14174167811870575,1.4626201391220093
1740240345384390100,1.92739013671875,1.0823886394500732,-0.022884119302034378,1.3890008926391602
1740240345394412000,1.937412109375,0.9926521182060242,-0.1818617880344391,1.3070194721221924
1740240345404433000,1.947432861328125,0.9133291244506836,-0.3421717584133148,1.2090859413146973
1740240345414455000,1.957455078125,0.8261886239051819,-0.4873409569263458,1.1010327339172363
1740240345424476200,1.96747607421875,0.7505590915679932,-0.5750429630279541,0.9720686078071594
1740240345434497000,1.9774970703125,0.676069974899292,-0.5646387934684753,0.8610813617706299
1740240345444519200,1.987519287109375,0.605166494846344,-0.5418481230735779,0.7914834022521973
1740240345454540000,1.9975400390625,0.5516929030418396,-0.5328519940376282,0.7628685235977173
1740240345464561000,2.007560791015625,0.5084187388420105,-0.48608365654945374,0.7699617147445679
1740240345474583000,2.0175830078125,0.47899293899536133,-0.45967522263526917,0.8385293483734131
1740240345484604200,2.027604248046875,0.46202656626701355,-0.5020636320114136,0.9692020416259766
1740240345494626000,2.0376259765625,0.45895087718963623,-0.580713152885437,1.1120599508285522
1740240345504647000,2.04764697265625,0.4420778155326843,-0.6018118858337402,1.222974181175232
1740240345514668000,2.05766796875,0.34480080008506775,-0.7143397331237793,1.3178932666778564
1740240345524690200,2.067690185546875,0.22056549787521362,-1.025471806526184,1.3764768838882446
1740240345534711000,2.0777109375,0.14006507396697998,-1.304603099822998,1.3247097730636597
1740240345544732200,2.087732177734375,0.06941138952970505,-1.4003722667694092,1.1529790163040161
1740240345554754000,2.097754150390625,0.017762577161192894,-1.4232165813446045,0.8921714425086975
1740240345564775000,2.10777490234375,-0.003026371356099844,-1.346529483795166,0.628227710723877
1740240345574796000,2.117796142578125,-0.050830647349357605,-1.26835298538208,0.4527996778488159
1740240345584818200,2.127818115234375,-0.16667784750461578,-1.0820002555847168,0.30175158381462097
1740240345594839000,2.137839111328125,-0.3231936991214752,-0.6889600157737732,0.11644775420427322
1740240345604861000,2.14786083984375,-0.46009278297424316,-0.3506971001625061,-0.08562646061182022
1740240345614882000,2.157882080078125,-0.560814619064331,0.002152303233742714,-0.27732476592063904
1740240345624903000,2.16790283203125,-0.6659688949584961,0.34013694524765015,-0.4215749502182007
1740240345634925000,2.177925048828125,-0.7684886455535889,0.5948059558868408,-0.509718656539917
1740240345644946200,2.1879462890625,-0.8555846214294434,0.6186942458152771,-0.5373866558074951
1740240345654967000,2.197967041015625,-0.9178316593170166,0.4222552478313446,-0.5064071416854858
1740240345664989000,2.207989013671875,-0.9870212078094482,0.10927195101976395,-0.43109825253486633
1740240345675010000,2.218010009765625,-1.0703225135803223,-0.31523165106773376,-0.3476638197898865
1740240345685032200,2.2280322265625,-1.1046699285507202,-0.8595802783966064,-0.23514148592948914
1740240345695053000,2.238052978515625,-0.9928954839706421,-1.2873239517211914,-0.0519450306892395
1740240345705074200,2.24807421875,-0.7703545689582825,-1.4557851552963257,0.16160309314727783
1740240345715096000,2.258095947265625,-0.6052849292755127,-1.2578086853027344,0.31114864349365234
1740240345725117000,2.268116943359375,-0.5939473509788513,-0.8714805245399475,0.31569263339042664
1740240345735138000,2.278137939453125,-0.6894416213035583,-0.47005555033683777,0.21750028431415558
1740240345745160200,2.28816015625,-0.7428750395774841,-0.12198609113693237,0.07918811589479446
1740240345755181000,2.29818115234375,-0.7262797951698303,0.12769962847232819,-0.04737542197108269
1740240345765203000,2.308202880859375,-0.7443664073944092,0.24223792552947998,-0.15192048251628876
1740240345775224000,2.31822412109375,-0.7701449990272522,0.26898643374443054,-0.2619020938873291
1740240345785245000,2.328244873046875,-0.790671706199646,0.21663205325603485,-0.32758828997612
1740240345795267000,2.33826708984375,-0.8304516077041626,0.004462273325771093,-0.30907824635505676
1740240345805288200,2.3482880859375,-0.7482011914253235,-0.2536078691482544,-0.2706642746925354
1740240345815309000,2.35830908203125,-0.6104145646095276,-0.36776506900787354,-0.24343131482601166
1740240345825331000,2.3683310546875,-0.6492339372634888,-0.2701132893562317,-0.2500385642051697
1740240345835351600,2.3783515625,-0.692101776599884,-0.07548602670431137,-0.2995219826698303
1740240345845373700,2.388373779296875,-0.6006082892417908,0.011784257367253304,-0.39914780855178833
1740240345855394600,2.39839453125,-0.576664388179779,0.12084896117448807,-0.4318636655807495
1740240345865415700,2.408415771484375,-0.9956986308097839,-0.032129138708114624,-0.570432722568512
1740240345875437600,2.4184375,-1.6381551027297974,-0.011242765001952648,-0.173359677195549
1740240345885458400,2.42845849609375,-1.4783018827438354,-0.4167707860469818,0.11852534115314484
1740240345895479600,2.4384794921875,-1.26963472366333,-0.7331079840660095,0.15772360563278198
1740240345905501700,2.448501708984375,-0.9979585409164429,-0.7648008465766907,0.06622171401977539
1740240345915522600,2.4585224609375,-0.6726381778717041,-0.7406875491142273,0.08437594771385193
1740240345925544400,2.46854443359375,-0.48192647099494934,-0.7665314674377441,0.1975991129875183
1740240345935565600,2.478565673828125,-0.3195010721683502,-0.6833257675170898,0.1838228553533554
1740240345945586400,2.48858642578125,-0.292106568813324,-0.5000272989273071,0.1145748645067215
1740240345955608600,2.498608642578125,-0.32071372866630554,-0.31043124198913574,0.07068543881177902
1740240345965629700,2.508629638671875,-0.3756883442401886,-0.22616268694400787,0.08044315129518509
1740240345975650600,2.518650634765625,-0.4244004786014557,-0.2609536647796631,0.07857734709978104
1740240345985672400,2.52867236328125,-0.45432156324386597,-0.40200018882751465,0.08343319594860077
1740240345995693600,2.538693603515625,-0.4691111743450165,-0.6817324757575989,0.1384730041027069
1740240346005715700,2.5487158203125,-0.47765013575553894,-0.96353679895401,0.20852458477020264
1740240346015736600,2.558736572265625,-0.48960453271865845,-1.079784631729126,0.23988623917102814
1740240346025757400,2.56875732421875,-0.5184760093688965,-1.0726250410079956,0.2664719820022583
1740240346035779600,2.578779541015625,-0.5230574011802673,-0.971340537071228,0.28917860984802246
1740240346045800400,2.588800537109375,-0.49875175952911377,-0.8415108919143677,0.29546549916267395
1740240346055821300,2.5988212890625,-0.46398818492889404,-0.7463076710700989,0.30015504360198975
1740240346065843500,2.608843505859375,-0.4571414589881897,-0.6906781792640686,0.3639521598815918
1740240346075864600,2.618864501953125,-0.4845278263092041,-0.634677529335022,0.4674873352050781
1740240346085886500,2.628886474609375,-0.5230246186256409,-0.6037434339523315,0.5607101321220398
1740240346095907300,2.6389072265625,-0.5612010359764099,-0.6739345192909241,0.6109410524368286
1740240346105928400,2.648928466796875,-0.6395330429077148,-0.8770378828048706,0.5766907334327698
1740240346115950600,2.65895068359375,-0.7098910808563232,-1.0499348640441895,0.5213702321052551
1740240346125971500,2.668971435546875,-0.7468058466911316,-1.167239785194397,0.4907781481742859
1740240346135992600,2.67899267578125,-0.7675798535346985,-1.2181354761123657,0.48912540078163147
1740240346146014500,2.689014404296875,-0.7896799445152283,-1.2182576656341553,0.5070680975914001
1740240346156035300,2.699035400390625,-0.8047859072685242,-1.1640777587890625,0.5567754507064819
1740240346166057500,2.709057373046875,-0.7973384857177734,-1.0664759874343872,0.6435284614562988
1740240346176078600,2.71907861328125,-0.7584657073020935,-0.9737311601638794,0.7369758486747742
1740240346186099500,2.729099365234375,-0.7057659029960632,-0.9540097713470459,0.7911962270736694
1740240346196121300,2.739121337890625,-0.6484927535057068,-0.9553530812263489,0.8017562031745911
1740240346206142500,2.749142578125,-0.5915610790252686,-0.9227163791656494,0.8036198019981384
1740240346216163600,2.75916357421875,-0.5252742171287537,-0.9283170104026794,0.8500099778175354
1740240346226185500,2.769185546875,-0.4067509174346924,-1.0043296813964844,0.9213816523551941
1740240346236206600,2.77920654296875,-0.2686135470867157,-1.1202538013458252,0.9809451103210449
1740240346246228500,2.789228515625,-0.16167683899402618,-1.1769782304763794,1.0581915378570557
1740240346256249300,2.799249267578125,-0.07854945957660675,-1.164984941482544,1.09800386428833
1740240346266270700,2.809270751953125,-0.02620796300470829,-1.1377381086349487,1.1537539958953857
1740240346276292600,2.819292724609375,0.021961962804198265,-1.064317226409912,1.210010051727295
1740240346286313500,2.8293134765625,0.08655079454183578,-0.9864920377731323,1.2420026063919067
1740240346296334600,2.83933447265625,0.13770878314971924,-0.8598216772079468,1.275608777999878
1740240346306356500,2.8493564453125,0.15824225544929504,-0.6237305402755737,1.3087680339813232
1740240346316377600,2.859377685546875,0.21461258828639984,-0.4216131567955017,1.3216278553009033
1740240346326398700,2.869398681640625,0.2850164771080017,-0.1911620944738388,1.3192362785339355
1740240346336420600,2.879420654296875,0.3964231610298157,0.010870368219912052,1.3191266059875488
1740240346346441500,2.88944140625,0.47924256324768066,0.1423463672399521,1.3499866724014282
1740240346356463400,2.89946337890625,0.618349015712738,0.1738521009683609,1.3930132389068604
1740240346366484700,2.909484619140625,0.7479966282844543,0.2781294882297516,1.4174553155899048
1740240346376505600,2.919505615234375,0.9441200494766235,0.3449559211730957,1.4478904008865356
1740240346386527500,2.929527587890625,1.115381121635437,0.3588290512561798,1.5005091428756714
1740240346396548600,2.939548583984375,1.2177563905715942,0.42211323976516724,1.51317298412323
1740240346406569500,2.949569580078125,1.2471351623535156,0.4924965798854828,1.4674686193466187
1740240346416591600,2.959591552734375,1.4285187721252441,0.49676990509033203,1.4168100357055664
1740240346426612700,2.96961279296875,1.606816291809082,0.5567320585250854,1.3929044008255005
1740240346436634600,2.979634521484375,1.7676910161972046,0.6761934757232666,1.3794673681259155
1740240346446655500,2.989655517578125,1.9288947582244873,0.7762768268585205,1.4108880758285522
1740240346456676600,2.999676513671875,2.0346317291259766,0.9571480751037598,1.438680648803711
1740240346466698800,3.00969873046875,2.0695512294769287,1.1855015754699707,1.4567958116531372
1740240346476719600,3.0197197265625,2.029222011566162,1.3446736335754395,1.4650721549987793
1740240346486740500,3.029740478515625,1.9723844528198242,1.381263256072998,1.5062241554260254
1740240346496762600,3.0397626953125,1.893722414970398,1.41153883934021,1.5132945775985718
1740240346506783500,3.049783447265625,1.8247920274734497,1.4784518480300903,1.4833741188049316
1740240346516805600,3.0598056640625,1.7952836751937866,1.5488159656524658,1.456516146659851
1740240346526826500,3.069826416015625,1.803847312927246,1.5751316547393799,1.3927364349365234
1740240346536847600,3.07984765625,1.8230935335159302,1.4934090375900269,1.2949329614639282
1740240346546869500,3.089869384765625,1.842268466949463,1.324832558631897,1.1754363775253296
1740240346556890400,3.099890380859375,1.8344143629074097,1.1965701580047607,1.0288625955581665
1740240346566911500,3.109911376953125,1.7641385793685913,1.196211814880371,0.851673424243927
1740240346576933600,3.11993359375,1.7285856008529663,1.273093342781067,0.7047356367111206
1740240346586954500,3.12995458984375,1.7215203046798706,1.345711350440979,0.6496509909629822
1740240346596976600,3.1399765625,1.7212347984313965,1.4074642658233643,0.6866851449012756
1740240346606997500,3.14999755859375,1.641330599784851,1.4388811588287354,0.6937397122383118
1740240346617018400,3.160018310546875,1.6718906164169312,1.2231895923614502,0.7257066965103149
1740240346627040500,3.17004052734375,1.677060604095459,1.2013514041900635,0.732576847076416
1740240346637061600,3.1800615234375,1.7107064723968506,1.2997479438781738,0.7123674154281616
1740240346647082500,3.19008251953125,1.804160475730896,1.3036702871322632,0.7014118432998657
1740240346657104400,3.2001044921875,1.9047605991363525,1.3036521673202515,0.6877831220626831
1740240346667125500,3.21012548828125,1.9640247821807861,1.3233798742294312,0.6851295828819275
1740240346677147600,3.220147705078125,1.9466664791107178,1.351617455482483,0.693835437297821
1740240346687168500,3.23016845703125,1.8831794261932373,1.4221786260604858,0.7107800841331482
1740240346697189600,3.240189697265625,1.8456823825836182,1.5863410234451294,0.743973970413208
1740240346707211500,3.25021142578125,1.911055564880371,1.7871472835540771,0.786156415939331
1740240346717232400,3.260232421875,2.0504415035247803,1.7931649684906006,0.8072193264961243
1740240346727253500,3.27025341796875,2.1956980228424072,1.604712963104248,0.8629305362701416
1740240346737275600,3.280275634765625,2.3175806999206543,1.5234547853469849,0.90413898229599
1740240346747296500,3.290296630859375,2.3705861568450928,1.5470819473266602,0.8838101625442505
1740240346757318400,3.300318359375,2.3695197105407715,1.5504734516143799,0.8512250185012817
1740240346767339500,3.310339599609375,2.3635733127593994,1.570115089416504,0.7990165948867798
1740240346777360400,3.3203603515625,2.3992269039154053,1.6163573265075684,0.7287312150001526
1740240346787382500,3.330382568359375,2.484705924987793,1.6975964307785034,0.6600572466850281
1740240346797403600,3.340403564453125,2.5777523517608643,1.7459312677383423,0.6127424836158752
1740240346807424500,3.350424560546875,2.602389335632324,1.6747764348983765,0.6095076203346252
1740240346817446400,3.3604462890625,2.531900405883789,1.5576881170272827,0.5991223454475403
1740240346827467500,3.370467529296875,2.4232919216156006,1.5063153505325317,0.5763390064239502
1740240346837490200,3.380490234375,2.378502130508423,1.51241135597229,0.5653340220451355
1740240346847511000,3.390510986328125,2.4136219024658203,1.5210901498794556,0.5480702519416809
1740240346857532000,3.400531982421875,2.460731267929077,1.52412748336792,0.4944017231464386
1740240346867554000,3.410553955078125,2.4756908416748047,1.5388511419296265,0.4360397160053253
1740240346877575000,3.420574951171875,2.43507981300354,1.6094921827316284,0.4034641981124878
1740240346887596000,3.430595947265625,2.376319408416748,1.6297733783721924,0.3984973728656769
1740240346897618200,3.4406181640625,2.283684730529785,1.577785849571228,0.4173719882965088
1740240346907639000,3.45063916015625,2.1395161151885986,1.4918687343597412,0.4206933379173279
1740240346917661000,3.460660888671875,1.963754415512085,1.4776959419250488,0.3589487671852112
1740240346927682000,3.47068212890625,1.819327473640442,1.4611178636550903,0.2667560875415802
1740240346937703200,3.480703125,1.7129448652267456,1.4208815097808838,0.1874261200428009
1740240346947725000,3.49072509765625,1.6469829082489014,1.343171238899231,0.1240207776427269
1740240346957746000,3.500745849609375,1.5894091129302979,1.2316551208496094,0.0963425487279892
1740240346967767000,3.51076708984375,1.5225789546966553,1.195963740348816,0.09399832785129547
1740240346977789000,3.520788818359375,1.47345769405365,1.218582272529602,0.11017463356256485
1740240346987810000,3.53081005859375,1.438425898551941,1.2135944366455078,0.14513292908668518
1740240346997832000,3.54083203125,1.381933569908142,1.1467185020446777,0.21025574207305908
1740240347007853000,3.55085302734375,1.2843149900436401,1.0838606357574463,0.2802455425262451
1740240347017874000,3.5608740234375,1.1880733966827393,1.0863029956817627,0.3362877666950226
1740240347027895800,3.570895751953125,1.1172200441360474,1.1683045625686646,0.39599913358688354
1740240347037917200,3.580917236328125,1.0812090635299683,1.2523422241210938,0.4770239591598511
1740240347047938000,3.59093798828125,1.0674769878387451,1.3077878952026367,0.5514345765113831
1740240347057960000,3.6009599609375,1.070990800857544,1.2921417951583862,0.5950736403465271
1740240347067981000,3.61098095703125,1.0776259899139404,1.2428147792816162,0.6085795760154724
1740240347078003000,3.6210029296875,1.0787805318832397,1.2161914110183716,0.5869240760803223
1740240347088024000,3.631024169921875,1.0978516340255737,1.217603325843811,0.5382494330406189
1740240347098045200,3.641045166015625,1.1506128311157227,1.2248425483703613,0.49697017669677734
1740240347108067000,3.651067138671875,1.2305552959442139,1.1800758838653564,0.5021616220474243
1740240347118088000,3.661087890625,1.296434998512268,1.0895092487335205,0.5361397862434387
1740240347128109000,3.671109130859375,1.3097151517868042,1.03462815284729,0.5805724263191223
1740240347138131200,3.681131103515625,1.2817192077636719,1.027668833732605,0.6461865901947021
1740240347148152000,3.691152099609375,1.262354850769043,1.0718512535095215,0.6976227760314941
1740240347158174000,3.701174072265625,1.2601585388183594,1.0979269742965698,0.7266549468040466
1740240347168195000,3.711195068359375,1.2859985828399658,1.0893317461013794,0.724294126033783
1740240347178216000,3.7212158203125,1.3348795175552368,1.0919030904769897,0.6729611754417419
1740240347188238000,3.731238037109375,1.358594298362732,1.0923539400100708,0.6074478626251221
1740240347198259200,3.74125927734375,1.3284387588500977,1.039860725402832,0.5493704080581665
1740240347208281000,3.751281005859375,1.2492461204528809,0.9863600134849548,0.48481231927871704
1740240347218302000,3.761302001953125,1.1542831659317017,0.9667157530784607,0.4278680682182312
1740240347228323000,3.771322998046875,1.0413649082183838,0.9610769748687744,0.41116005182266235
1740240347238345200,3.78134521484375,0.9145736694335938,0.9310796856880188,0.4223453402519226
1740240347248366000,3.791365966796875,0.8064759373664856,0.896666944026947,0.4134361147880554
1740240347258387200,3.80138720703125,0.7054766416549683,0.8698456883430481,0.4001040756702423
1740240347268409000,3.8114091796875,0.5879309773445129,0.9130393862724304,0.39307618141174316
1740240347278430000,3.821429931640625,0.46650683879852295,1.02364981174469,0.3941268026828766
1740240347288451000,3.831451171875,0.36216479539871216,1.1320714950561523,0.4111155569553375
1740240347298473200,3.84147314453125,0.2513898015022278,1.1771750450134277,0.438764750957489
1740240347308494000,3.851494140625,0.11627443879842758,1.192104458808899,0.4530927836894989
1740240347318516000,3.861515869140625,-0.022709276527166367,1.170434832572937,0.4476173520088196
1740240347328537000,3.871537109375,-0.14406715333461761,1.1552541255950928,0.4526748061180115
1740240347338558000,3.881557861328125,-0.24334926903247833,1.1585160493850708,0.4189315140247345
1740240347348580000,3.891580078125,-0.36440426111221313,1.133954644203186,0.3473864197731018
1740240347358601200,3.901601318359375,-0.5099742412567139,1.1194508075714111,0.24694079160690308
1740240347368622000,3.9116220703125,-0.6298902630805969,1.1069663763046265,0.14773255586624146
1740240347378644000,3.92164404296875,-0.6465904116630554,0.9733233451843262,0.09588079899549484
1740240347388665000,3.9316650390625,-0.6349821090698242,0.8241045475006104,0.12697038054466248
1740240347398687200,3.941687255859375,-0.634710967540741,0.8357579708099365,0.2418666034936905
1740240347408708000,3.9517080078125,-0.6728078126907349,0.9870030879974365,0.404384046792984
1740240347418729000,3.96172900390625,-0.7828525304794312,1.1694899797439575,0.6115356683731079
1740240347428751000,3.971751220703125,-0.8977406024932861,1.2434309720993042,0.7733771204948425
1740240347438772000,3.98177197265625,-0.9296298027038574,1.1644163131713867,0.8413417935371399
1740240347448794000,3.991794189453125,-0.9450506567955017,1.0713661909103394,0.8389402627944946
1740240347458815000,4.00181494140625,-0.9839921593666077,0.9360896348953247,0.7815001606941223
1740240347468836000,4.011836181640625,-1.0471580028533936,0.8132651448249817,0.6883695721626282
1740240347478858000,4.02185791015625,-1.109985113143921,0.77378910779953,0.6503726840019226
1740240347488878800,4.03187890625,-1.1664187908172607,0.839338481426239,0.6695775985717773
1740240347498900000,4.04189990234375,-1.273779034614563,0.9591758847236633,0.6700273752212524
1740240347508922000,4.051922119140625,-1.3629206418991089,0.9343292713165283,0.6392356753349304
1740240347518943000,4.06194287109375,-1.3831028938293457,0.839820921421051,0.630610466003418
1740240347528965000,4.071965087890625,-1.4186731576919556,0.8781652450561523,0.7029187679290771
1740240347538986000,4.081986083984375,-1.575474739074707,0.9670335650444031,0.7740421891212463
1740240347549006800,4.0920068359375,-1.7442468404769897,1.069705605506897,0.7279545664787292
1740240347559029000,4.102029052734375,-1.89308500289917,1.3412586450576782,0.6279483437538147
1740240347569050000,4.112050048828125,-2.132263422012329,1.6551523208618164,0.557325541973114
1740240347579071000,4.122071044921875,-2.3311140537261963,1.6381211280822754,0.5107492208480835
1740240347589092900,4.1320927734375,-2.445634603500366,1.820178747177124,0.5062461495399475
1740240347599114000,4.142114013671875,-2.3258187770843506,1.8904651403427124,0.42755717039108276
1740240347609136000,4.15213623046875,-2.1953980922698975,1.7272584438323975,0.23908132314682007
1740240347619157000,4.162156982421875,-2.0768418312072754,1.5793894529342651,0.03880202770233154
1740240347629178000,4.17217822265625,-1.9580214023590088,1.4519708156585693,-0.09175023436546326
1740240347639200000,4.182199951171875,-1.8469198942184448,1.3618675470352173,-0.11938159912824631
1740240347649220900,4.192220947265625,-1.7593553066253662,1.3795195817947388,-0.05309247970581055
1740240347659242200,4.2022421875,-1.6879825592041016,1.2749005556106567,0.00046662171371281147
1740240347669264100,4.21226416015625,-1.5977979898452759,1.0382450819015503,0.04947149381041527
1740240347679285000,4.222284912109375,-1.4898605346679688,0.8188170790672302,0.1737244725227356
1740240347689307000,4.232306884765625,-1.394486904144287,0.7242645621299744,0.32735732197761536
1740240347699328000,4.242327880859375,-1.4218841791152954,0.8265632390975952,0.44678813219070435
1740240347709349000,4.25234912109375,-1.5346767902374268,0.9908490777015686,0.5096014142036438
1740240347719371000,4.26237109375,-1.5562033653259277,1.024898886680603,0.5221001505851746
1740240347729392000,4.27239208984375,-1.5123980045318604,0.9819174408912659,0.5158578157424927
1740240347739413000,4.2824130859375,-1.500611662864685,0.952255129814148,0.5487396121025085
1740240347749435000,4.292434814453125,-1.5225878953933716,0.9032792448997498,0.6381162405014038
1740240347759456000,4.3024560546875,-1.5342868566513062,0.8870819211006165,0.7306238412857056
1740240347769478100,4.31247802734375,-1.538394570350647,0.8934282064437866,0.8069483041763306
1740240347779499000,4.3224990234375,-1.5625553131103516,0.8693007826805115,0.870810329914093
1740240347789520100,4.33252001953125,-1.6039557456970215,0.8456107974052429,0.9667189121246338
1740240347799542000,4.3425419921875,-1.61850905418396,0.847690761089325,1.1401431560516357
1740240347809563000,4.35256298828125,-1.6682348251342773,0.9150112867355347,1.3317078351974487
1740240347819584300,4.362584228515625,-1.709494948387146,0.9080439209938049,1.4985045194625854
1740240347829606100,4.372606201171875,-1.728566288948059,0.7941441535949707,1.6244375705718994
1740240347839627000,4.382626953125,-1.7597156763076782,0.5893300175666809,1.7257417440414429
1740240347849649000,4.39264892578125,-1.8312946557998657,0.4038020968437195,1.7779908180236816
1740240347859670000,4.402669921875,-1.923944115638733,0.21338021755218506,1.8227803707122803
1740240347869691000,4.41269091796875,-2.0206735134124756,0.07788582891225815,1.8433769941329956
1740240347879712800,4.422712646484375,-2.131726026535034,0.010299863293766975,1.858869194984436
1740240347889734100,4.432734130859375,-2.2301907539367676,-0.09663842618465424,1.9153376817703247
1740240347899755000,4.442755126953125,-2.29717755317688,-0.20924754440784454,1.996974229812622
1740240347909777000,4.45277685546875,-2.314382553100586,-0.3399301767349243,2.065197229385376
1740240347919798000,4.462798095703125,-2.351576566696167,-0.3821151852607727,2.0993309020996094
1740240347929820000,4.47281982421875,-2.394953727722168,-0.43110349774360657,2.0966317653656006
1740240347939840800,4.4828408203125,-2.525508403778076,-0.5266201496124268,2.0214765071868896
1740240347949862000,4.49286181640625,-2.7050817012786865,-0.7473079562187195,1.9156593084335327
1740240347959884000,4.502884033203125,-2.9073574542999268,-1.0136685371398926,1.8004640340805054
1740240347969905000,4.51290478515625,-3.124185085296631,-1.189231276512146,1.701755404472351
1740240347979926800,4.5229267578125,-3.277600049972534,-1.2979167699813843,1.6203100681304932
1740240347989948000,4.532947998046875,-3.3935534954071045,-1.3359755277633667,1.5396114587783813
1740240347999969000,4.542968994140625,-3.4181699752807617,-1.3014055490493774,1.4809356927871704
1740240348009991000,4.552990966796875,-3.3252832889556885,-1.1893068552017212,1.443371057510376
1740240348020011800,4.56301171875,-3.244576930999756,-1.0592318773269653,1.4004625082015991
1740240348030033000,4.573032958984375,-3.1935555934906006,-0.9907419085502625,1.3040543794631958
1740240348040054800,4.5830546875,-3.119119644165039,-1.050609827041626,1.1753730773925781
1740240348050076000,4.593075927734375,-3.06001877784729,-1.2109352350234985,1.0648220777511597
1740240348060098000,4.60309814453125,-3.0169949531555176,-1.2726635932922363,0.91579669713974
1740240348070119000,4.613118896484375,-2.9682493209838867,-1.3203779458999634,0.7370290756225586
1740240348080139800,4.623139892578125,-2.866178274154663,-1.3776979446411133,0.6003684401512146
1740240348090162000,4.633161865234375,-2.7114312648773193,-1.4091521501541138,0.5214642286300659
1740240348100183000,4.64318310546875,-2.5061092376708984,-1.4326602220535278,0.47131988406181335
1740240348110204000,4.653203857421875,-2.2714645862579346,-1.492120623588562,0.4403265714645386
1740240348120225800,4.663225830078125,-2.0193660259246826,-1.5339921712875366,0.410857617855072
1740240348130247000,4.673246826171875,-1.7855405807495117,-1.5376272201538086,0.4081977605819702
1740240348140268800,4.683268798828125,-1.5586602687835693,-1.4546830654144287,0.44558775424957275
1740240348150290000,4.6932900390625,-1.3243777751922607,-1.3148374557495117,0.5405607223510742
1740240348160311000,4.70331103515625,-1.1182760000228882,-1.1593388319015503,0.6236867308616638
1740240348170333000,4.7133330078125,-0.9469693899154663,-1.1348215341567993,0.6453429460525513
1740240348180353800,4.723353759765625,-0.7938711643218994,-1.228857159614563,0.5499935150146484
1740240348190375000,4.733375,-0.6351169347763062,-1.3667105436325073,0.3964133858680725
1740240348200397000,4.74339697265625,-0.48082295060157776,-1.490792989730835,0.30060723423957825
1740240348210418000,4.75341796875,-0.32894712686538696,-1.6272647380828857,0.3376137912273407
1740240348220439800,4.763439697265625,-0.17609044909477234,-1.7808388471603394,0.4537246823310852
1740240348230461000,4.7734609375,-0.0036044041626155376,-1.9169775247573853,0.5630927085876465
1740240348240481800,4.783481689453125,0.1804056465625763,-2.0077903270721436,0.6323668956756592
1740240348250504000,4.79350390625,0.33715447783470154,-2.0393457412719727,0.7093547582626343
1740240348260525000,4.803525146484375,0.4570441246032715,-2.018162250518799,0.7917191386222839
1740240348270546000,4.8135458984375,0.5666003823280334,-1.9400520324707031,0.8497890830039978
1740240348280567800,4.82356787109375,0.6825067400932312,-1.831691026687622,0.8610886335372925
1740240348290589000,4.8335888671875,0.795098066329956,-1.8085157871246338,0.8155255317687988
1740240348300611000,4.843611083984375,0.872873067855835,-1.8969488143920898,0.7274851202964783
1740240348310632000,4.8536318359375,0.9279121160507202,-1.9965044260025024,0.615402102470398
1740240348320653000,4.863653076171875,0.9791162014007568,-2.0373764038085938,0.4800530970096588
1740240348330675000,4.873675048828125,1.0337530374526978,-2.0368165969848633,0.3384234607219696
1740240348340695800,4.88369580078125,1.1025097370147705,-1.9647190570831299,0.23329173028469086
1740240348350717000,4.893717041015625,1.1891616582870483,-1.872173547744751,0.19118544459342957
1740240348360739000,4.903739013671875,1.2848774194717407,-1.7880102396011353,0.175223246216774
1740240348370760000,4.913760009765625,1.3757662773132324,-1.7286968231201172,0.13990142941474915
1740240348380781800,4.92378173828125,1.4935972690582275,-1.7774600982666016,0.020818181335926056
1740240348390803000,4.933802978515625,1.5692087411880493,-1.8582583665847778,-0.17051848769187927
1740240348400823800,4.94382373046875,1.5254652500152588,-1.7308794260025024,-0.27106773853302
1740240348410846000,4.953845947265625,1.5256047248840332,-1.628321886062622,-0.336301326751709
1740240348420867000,4.9638671875,1.5485894680023193,-1.554932713508606,-0.3457808494567871
1740240348430889000,4.973888916015625,1.5710129737854004,-1.416831374168396,-0.25222763419151306
1740240348440909800,4.983909912109375,1.6082950830459595,-1.2823529243469238,-0.19890183210372925
1740240348450931000,4.993930908203125,1.683016300201416,-1.1953051090240479,-0.26167258620262146
1740240348460953000,5.003953125,1.7090585231781006,-1.1308221817016602,-0.3702014684677124
1740240348470974000,5.013973876953125,1.6500327587127686,-1.033035397529602,-0.44387614727020264
1740240348480994800,5.023994873046875,1.5901060104370117,-0.7793993949890137,-0.48450854420661926
1740240348491017000,5.034016845703125,1.597174882888794,-0.3963034749031067,-0.5487973690032959
1740240348501037800,5.044037841796875,1.6582658290863037,0.010853097774088383,-0.7666252851486206
1740240348511060000,5.05406005859375,1.7957276105880737,0.10324162244796753,-1.143767237663269
1740240348521081000,5.0640810546875,1.9371979236602783,-0.06623635441064835,-1.6081600189208984
1740240348531102000,5.07410205078125,1.9979462623596191,-0.1349233239889145,-2.1352996826171875
1740240348541123800,5.084123779296875,1.9922103881835938,-0.14671127498149872,-2.6017494201660156
1740240348551145000,5.09414501953125,1.8190324306488037,-0.10388260334730148,-2.8620619773864746
1740240348561167000,5.1041669921875,1.4995553493499756,-0.17515546083450317,-2.838552713394165
1740240348571188000,5.11418798828125,1.2363555431365967,-0.4704902172088623,-2.604517698287964
1740240348581208800,5.124208740234375,1.0734479427337646,-0.7974321246147156,-2.3121697902679443
1740240348591231000,5.13423095703125,0.9785208702087402,-0.9806079268455505,-2.0168354511260986
1740240348601251800,5.144251953125,0.9205033779144287,-1.0707337856292725,-1.7467626333236694
1740240348611272700,5.154272705078125,0.8954970240592957,-1.0632829666137695,-1.5356391668319702
1740240348621294800,5.164294921875,0.9222588539123535,-1.032976746559143,-1.4628562927246094
1740240348631316000,5.17431591796875,0.9716138243675232,-1.0246825218200684,-1.5418092012405396
1740240348641337900,5.184337890625,0.9626954197883606,-0.9538694620132446,-1.6606724262237549
1740240348651358700,5.194358642578125,0.9483679533004761,-0.8656412363052368,-1.7788461446762085
1740240348661379800,5.2043798828125,0.9231020212173462,-0.7674344778060913,-1.9440997838974
1740240348671402000,5.214402099609375,0.8274538516998291,-0.6795810461044312,-2.135955572128296
1740240348681422800,5.2244228515625,0.6781852841377258,-0.6299809813499451,-2.261857509613037
1740240348691445000,5.234445068359375,0.4945061504840851,-0.5677825808525085,-2.2755508422851562
1740240348701465900,5.2444658203125,0.3103906214237213,-0.5276615619659424,-2.17266583442688
1740240348711486700,5.25448681640625,0.1866055279970169,-0.5502925515174866,-2.041935443878174
1740240348721508900,5.2645087890625,0.1300426423549652,-0.5127689242362976,-1.9437254667282104
1740240348731530000,5.274530029296875,0.13378244638442993,-0.34263134002685547,-1.930990219116211
1740240348741550800,5.28455078125,0.1484849601984024,-0.2077488750219345,-2.052860975265503
1740240348751572700,5.29457275390625,0.20849785208702087,-0.2013939917087555,-2.1958699226379395
1740240348761593900,5.30459375,0.2711859941482544,-0.19089527428150177,-2.3335673809051514
1740240348771616000,5.314615966796875,0.3280195891857147,-0.1781473010778427,-2.4290781021118164
1740240348781636900,5.324636962890625,0.32656043767929077,-0.18458442389965057,-2.5125274658203125
1740240348791658000,5.334657958984375,0.30272749066352844,-0.12803581357002258,-2.585585117340088
1740240348801680000,5.344679931640625,0.27657127380371094,-0.16046832501888275,-2.5910661220550537
1740240348811700700,5.35470068359375,0.23153986036777496,-0.1751730591058731,-2.5526862144470215
1740240348821723000,5.364722900390625,0.16174373030662537,-0.14704634249210358,-2.482501983642578
1740240348831744000,5.374743896484375,0.09860245883464813,-0.09292899817228317,-2.412811517715454
1740240348841764400,5.384764404296875,0.08190177381038666,-0.12017793208360672,-2.368802785873413
1740240348851786500,5.394786376953125,0.09995286166667938,-0.15115422010421753,-2.3725006580352783
1740240348861807600,5.4048076171875,0.12751524150371552,-0.18874819576740265,-2.3848116397857666
1740240348871828500,5.414828369140625,0.16705921292304993,-0.18297617137432098,-2.384300470352173
1740240348881850400,5.424850341796875,0.23114658892154694,-0.147746279835701,-2.3684492111206055
1740240348891871500,5.43487158203125,0.35184648633003235,-0.15891271829605103,-2.3357391357421875
1740240348901893600,5.4448935546875,0.4389131963253021,-0.1841280609369278,-2.2953591346740723
1740240348911914500,5.45491455078125,0.5134080648422241,-0.23253823816776276,-2.2536158561706543
1740240348921935600,5.464935546875,0.5794909000396729,-0.24353842437267303,-2.236650228500366
1740240348931957500,5.47495751953125,0.647384762763977,-0.21119926869869232,-2.2109456062316895
1740240348941978400,5.484978271484375,0.6547209620475769,-0.09014102071523666,-2.171917200088501
1740240348952000500,5.49500048828125,0.6296063661575317,-0.061195459216833115,-2.1480538845062256
1740240348962021600,5.505021728515625,0.5586594939231873,0.0017132002394646406,-2.206554412841797
1740240348972042500,5.51504248046875,0.46848663687705994,0.03302843123674393,-2.2749552726745605
1740240348982064400,5.525064453125,0.434225857257843,0.03441061079502106,-2.3417158126831055
1740240348992085500,5.53508544921875,0.4435161352157593,0.04473076015710831,-2.388432502746582
1740240349002106400,5.5451064453125,0.489631712436676,0.14150364696979523,-2.4108047485351562
1740240349012128500,5.55512841796875,0.542583167552948,0.2881990075111389,-2.4274909496307373
1740240349022149600,5.565149658203125,0.5689284801483154,0.39461520314216614,-2.4685754776000977
1740240349032171500,5.575171630859375,0.6384759545326233,0.382318913936615,-2.545017719268799
1740240349042192400,5.5851923828125,0.6877947449684143,0.3816904127597809,-2.6501176357269287
1740240349052213500,5.595213623046875,0.6953383684158325,0.37625885009765625,-2.7189218997955322
1740240349062235600,5.605235595703125,0.6976041793823242,0.3229444921016693,-2.7392754554748535
1740240349072256500,5.615256591796875,0.7492088079452515,0.29129716753959656,-2.745371103286743
1740240349082278400,5.6252783203125,0.7450215220451355,0.2665950059890747,-2.7021703720092773
1740240349092299500,5.635299560546875,0.7798802852630615,0.21603497862815857,-2.5671498775482178
1740240349102320400,5.6453203125,0.8153855204582214,0.16793403029441833,-2.400498151779175
1740240349112342500,5.655342529296875,0.8228132724761963,0.13607735931873322,-2.240420341491699
1740240349122363600,5.66536376953125,0.8628754615783691,0.14631640911102295,-2.1352362632751465
1740240349132385500,5.675385498046875,0.881800651550293,0.17425647377967834,-2.1043379306793213
1740240349142406400,5.685406494140625,0.8865509629249573,0.2736736238002777,-2.0961735248565674
1740240349152427500,5.695427490234375,0.9031693339347839,0.3972369134426117,-2.071343183517456
1740240349162449700,5.70544970703125,0.8989365100860596,0.49348941445350647,-2.0049593448638916
1740240349172470500,5.715470458984375,0.920893132686615,0.6387247443199158,-1.887482762336731
1740240349182492400,5.725492431640625,0.923217236995697,0.7801212668418884,-1.739018201828003
1740240349192513500,5.735513427734375,0.974548876285553,0.8364075422286987,-1.6452186107635498
1740240349202534400,5.745534423828125,1.034464716911316,0.8037145733833313,-1.6170892715454102
1740240349212556500,5.755556640625,0.9839814305305481,0.7379747629165649,-1.5748493671417236
1740240349222577700,5.76557763671875,0.9167972803115845,0.7009837627410889,-1.4603065252304077
1740240349232598500,5.7755986328125,0.780213475227356,0.6637158393859863,-1.249981164932251
1740240349242620400,5.785620361328125,0.6631571650505066,0.6177656650543213,-0.9412696957588196
1740240349252641500,5.7956416015625,0.5776547789573669,0.6188473105430603,-0.563396155834198
1740240349262663700,5.80566357421875,0.5411055684089661,0.6205711960792542,-0.14387638866901398
1740240349272684500,5.8156845703125,0.5071335434913635,0.691663384437561,0.20382001996040344
1740240349282705700,5.82570556640625,0.4679661691188812,0.771764874458313,0.4198116958141327
1740240349292727600,5.8357275390625,0.4400097131729126,0.8672699332237244,0.5112378597259521
1740240349302748400,5.84574853515625,0.40359604358673096,1.0148676633834839,0.5588157773017883
1740240349312770600,5.8557705078125,0.3141755163669586,1.1146454811096191,0.6940338015556335
1740240349322791700,5.865791748046875,0.17565517127513885,1.122728943824768,0.957821786403656
1740240349332812500,5.8758125,-0.004840676672756672,1.1237857341766357,1.2798947095870972
1740240349342834400,5.88583447265625,-0.25527581572532654,1.0453141927719116,1.6508148908615112
1740240349352855600,5.89585546875,-0.5128637552261353,0.9307278394699097,1.9675346612930298
1740240349362877700,5.905877685546875,-0.7403663992881775,0.751297652721405,2.1861073970794678
1740240349372898600,5.915898681640625,-0.8925639390945435,0.4972783029079437,2.3421974182128906
1740240349382919400,5.92591943359375,-1.0049456357955933,0.1161932572722435,2.5330657958984375
1740240349392941600,5.935941650390625,-1.1265995502471924,-0.19232505559921265,2.743645668029785
1740240349402962400,5.94596240234375,-1.2764369249343872,-0.4384991228580475,3.0388834476470947
1740240349412984600,5.955984619140625,-1.395650029182434,-0.6536125540733337,3.348184823989868
1740240349423005700,5.966005615234375,-1.5247750282287598,-0.9443594217300415,3.6549832820892334
1740240349433026600,5.976026611328125,-1.6418007612228394,-1.1457077264785767,3.9204468727111816
1740240349443048400,5.98604833984375,-1.7707222700119019,-1.146283507347107,4.1422600746154785
1740240349453069600,5.996069580078125,-1.8599309921264648,-1.1618707180023193,4.336949348449707
1740240349463091700,6.006091796875,-1.911904215812683,-1.1961501836776733,4.537428379058838
1740240349473112600,6.016112548828125,-1.9948387145996094,-1.299340844154358,4.759789943695068
1740240349483133400,6.026133544921875,-2.075962543487549,-1.3959587812423706,4.9475860595703125
1740240349493155600,6.036155517578125,-2.144989490509033,-1.445420503616333,5.086680889129639
1740240349503176400,6.046176513671875,-2.215236186981201,-1.4500993490219116,5.119997501373291
1740240349513198600,6.056198486328125,-2.2892074584960938,-1.3934991359710693,4.980914115905762
1740240349523219700,6.0662197265625,-2.297044038772583,-1.2768878936767578,4.697761058807373
1740240349533240600,6.076240478515625,-2.242563247680664,-1.1558161973953247,4.371908187866211
1740240349543262500,6.086262451171875,-2.1508896350860596,-1.0181169509887695,4.125080585479736
1740240349553283300,6.096283447265625,-2.053091526031494,-0.8928691744804382,4.024906158447266
1740240349563304400,6.106304443359375,-2.0000722408294678,-0.8646644353866577,4.035431861877441
1740240349573326600,6.11632666015625,-2.0032894611358643,-0.8369198441505432,4.025120258331299
1740240349583347500,6.126347412109375,-1.9974651336669922,-0.792473554611206,3.9598140716552734
1740240349593369600,6.13636962890625,-1.9672938585281372,-0.7744308710098267,3.8796892166137695
1740240349603390500,6.146390380859375,-1.917039155960083,-0.786806046962738,3.7688231468200684
1740240349613411300,6.156411376953125,-1.8032290935516357,-0.7875267863273621,3.5880355834960938
1740240349623433500,6.16643359375,-1.6296477317810059,-0.687791109085083,3.377394676208496
1740240349633454600,6.17645458984375,-1.4057695865631104,-0.44199037551879883,3.2593040466308594
1740240349643476500,6.1864765625,-1.229607105255127,-0.26762309670448303,3.2846076488494873
1740240349653497300,6.196497314453125,-1.1064587831497192,-0.24076233804225922,3.363579511642456
1740240349663518500,6.2065185546875,-1.0322498083114624,-0.2581472098827362,3.33341908454895
1740240349673540600,6.21654052734375,-1.0005884170532227,-0.26431554555892944,3.1814255714416504
1740240349683561500,6.2265615234375,-1.0275236368179321,-0.2256895750761032,2.9846761226654053
1740240349693583600,6.23658349609375,-1.0453312397003174,-0.1428278684616089,2.8204283714294434
1740240349703604500,6.2466044921875,-1.0308492183685303,-0.02308548614382744,2.7673985958099365
1740240349713625300,6.256625244140625,-0.9820012450218201,0.1295982301235199,2.811854600906372
1740240349723647500,6.2666474609375,-0.9430400133132935,0.31027212738990784,2.906181573867798
1740240349733668600,6.276668701171875,-0.8941582441329956,0.4050480127334595,2.9942848682403564
1740240349743690500,6.2866904296875,-0.8287855982780457,0.37211164832115173,3.0567610263824463
1740240349753711400,6.29671142578125,-0.7966027855873108,0.2844161093235016,3.0524511337280273
1740240349763732500,6.306732421875,-0.7682268023490906,0.21455660462379456,2.9677700996398926
1740240349773754600,6.316754638671875,-0.7277362942695618,0.1521138697862625,2.842164993286133
1740240349783775500,6.326775390625,-0.6686506271362305,0.14973193407058716,2.683619737625122
1740240349793797400,6.33679736328125,-0.572657585144043,0.17324618995189667,2.5464015007019043
1740240349803818500,6.346818603515625,-0.4966781735420227,0.18811781704425812,2.4419305324554443
1740240349813839400,6.35683935546875,-0.4481814205646515,0.17882868647575378,2.3551228046417236
1740240349823861500,6.366861572265625,-0.35979536175727844,0.18405568599700928,2.258492946624756
1740240349833883400,6.37688330078125,-0.27974817156791687,0.22473934292793274,2.223870038986206
1740240349843905300,6.3869052734375,-0.2545834481716156,0.2141314446926117,2.254051685333252
1740240349853926100,6.396926025390625,-0.24430778622627258,0.14331768453121185,2.297156810760498
1740240349863947300,6.406947265625,-0.22320514917373657,0.03636353090405464,2.3047115802764893
1740240349873969400,6.416969482421875,-0.1970096379518509,-0.044080011546611786,2.23905611038208
1740240349883990300,6.426990234375,-0.14457012712955475,-0.12158758193254471,2.0954906940460205
1740240349894012200,6.43701220703125,-0.09955713897943497,-0.15930841863155365,1.8784445524215698
1740240349904033300,6.447033203125,-0.07880125939846039,-0.13002777099609375,1.674159288406372
1740240349914054400,6.457054443359375,-0.0691414326429367,-0.08009681105613708,1.5773372650146484
1740240349924076300,6.467076171875,-0.05378831550478935,-0.028051987290382385,1.5653514862060547
1740240349934097400,6.477097412109375,-0.05443612486124039,0.01929291896522045,1.5902878046035767
1740240349944119300,6.487119384765625,-0.05754217132925987,0.06980989128351212,1.5864720344543457
1740240349954140200,6.49714013671875,-0.028823062777519226,0.09963498264551163,1.5349273681640625
1740240349964161300,6.507161376953125,0.038040656596422195,0.11861985176801682,1.468411922454834
1740240349974183400,6.517183349609375,0.10391300916671753,0.14269772171974182,1.4061059951782227
1740240349984204300,6.527204345703125,0.15038996934890747,0.13664142787456512,1.3519707918167114
1740240349994226200,6.53722607421875,0.17328502237796783,0.059561192989349365,1.2859944105148315
1740240350004247300,6.547247314453125,0.18350331485271454,-0.02345007285475731,1.2087938785552979
1740240350014268400,6.557268310546875,0.2107931673526764,-0.12867535650730133,1.1217483282089233
1740240350024290300,6.567290283203125,0.24157823622226715,-0.23596133291721344,1.0185649394989014
1740240350034311200,6.577311279296875,0.2543216943740845,-0.296394020318985,0.8952285051345825
1740240350044333300,6.587333251953125,0.2541632354259491,-0.3266685903072357,0.7603372931480408
1740240350054354200,6.597354248046875,0.25452449917793274,-0.2844741940498352,0.6253665089607239
1740240350064375300,6.607375244140625,0.24070484936237335,-0.19464948773384094,0.5277224779129028
1740240350074397400,6.6173974609375,0.2505154311656952,-0.15258383750915527,0.45254603028297424
1740240350084418300,6.627418212890625,0.2854353189468384,-0.14853157103061676,0.3459996283054352
1740240350094440200,6.637440185546875,0.3450636863708496,-0.12807059288024902,0.2024899274110794
1740240350104461300,6.64746142578125,0.4117279350757599,-0.11424505710601807,0.029786059632897377
1740240350114482400,6.657482421875,0.4997424781322479,-0.11855511367321014,-0.15564851462841034
1740240350124504300,6.66750439453125,0.5986844897270203,-0.07695760577917099,-0.3725872039794922
1740240350134525200,6.677525146484375,0.6576409339904785,-0.05372048541903496,-0.6520689129829407
1740240350144547300,6.68754736328125,0.7191969752311707,-0.13904151320457458,-0.9439407587051392
1740240350154568200,6.697568115234375,0.7436103820800781,-0.23929156363010406,-1.2061654329299927
1740240350164589300,6.70758935546875,0.7455403804779053,-0.2519386410713196,-1.4032096862792969
1740240350174611500,6.717611572265625,0.7399688959121704,-0.19220615923404694,-1.5013773441314697
1740240350184632300,6.72763232421875,0.7344257831573486,-0.05725046619772911,-1.5683001279830933
1740240350194654200,6.737654296875,0.7495235204696655,0.015815753489732742,-1.6467856168746948
1740240350204675000,6.747675048828125,0.7974308729171753,0.038159411400556564,-1.7859046459197998
1740240350214696200,6.7576962890625,0.8370407223701477,0.07472798973321915,-1.9874788522720337
1740240350224718300,6.76771826171875,0.8432126045227051,0.1303052455186844,-2.197511672973633
1740240350234739200,6.7777392578125,0.8147866725921631,0.22583332657814026,-2.353069305419922
1740240350244761300,6.78776123046875,0.8006567358970642,0.23450139164924622,-2.4334418773651123
1740240350254782200,6.7977822265625,0.7800107598304749,0.1671181172132492,-2.4496114253997803
1740240350264803000,6.807802978515625,0.7275648713111877,0.12044782191514969,-2.4467334747314453
1740240350274825200,6.8178251953125,0.6480910181999207,0.10276259481906891,-2.43194580078125
1740240350284846300,6.827846435546875,0.5720122456550598,0.07717014849185944,-2.40189528465271
1740240350294868200,6.8378681640625,0.49786585569381714,0.056103870272636414,-2.324338912963867
1740240350304889000,6.84788916015625,0.4253077507019043,0.13741230964660645,-2.22278094291687
1740240350314910200,6.85791015625,0.39052197337150574,0.2705601751804352,-2.1442759037017822
1740240350324932400,6.867932373046875,0.39355239272117615,0.36991047859191895,-2.089376211166382
1740240350334953200,6.877953125,0.4228349030017853,0.4443805515766144,-2.0626070499420166
1740240350344975400,6.887975341796875,0.4469362497329712,0.5515751242637634,-2.0552616119384766
1740240350354996200,6.897996337890625,0.46716681122779846,0.6626912951469421,-2.0410289764404297
1740240350365017000,6.90801708984375,0.4947526454925537,0.6966521739959717,-1.980851650238037
1740240350375039200,6.918039306640625,0.5269930958747864,0.6618735194206238,-1.8976742029190063
1740240350385060400,6.928060302734375,0.5630131363868713,0.6131843328475952,-1.777705430984497
1740240350395082200,6.938082275390625,0.559258222579956,0.5032228827476501,-1.6677430868148804
1740240350405103000,6.94810302734375,0.5011930465698242,0.377522736787796,-1.5962613821029663
1740240350415124200,6.958124267578125,0.4503293037414551,0.305227667093277,-1.576141357421875
1740240350425146400,6.968146484375,0.35011613368988037,0.2850246727466583,-1.5753282308578491
1740240350435167200,6.978167236328125,0.20521676540374756,0.36433395743370056,-1.541902780532837
1740240350445189000,6.988189208984375,0.05686138570308685,0.4635540246963501,-1.43639075756073
1740240350455210200,6.998210205078125,-0.0538269504904747,0.5425119996070862,-1.326326847076416
1740240350465231000,7.008231201171875,-0.11534677445888519,0.6238023638725281,-1.2329747676849365
1740240350475253200,7.018253173828125,-0.1324601173400879,0.7050293684005737,-1.1423499584197998
1740240350485274400,7.0282744140625,-0.1025237888097763,0.686923086643219,-1.0358521938323975
1740240350495296300,7.038296142578125,-0.06161366030573845,0.6056507229804993,-0.923502504825592
1740240350505317000,7.048317138671875,-0.059480469673871994,0.48361533880233765,-0.8521329760551453
1740240350515338200,7.058338134765625,-0.10737626999616623,0.2811637222766876,-0.8045925498008728
1740240350525360400,7.0683603515625,-0.20817291736602783,0.05920469015836716,-0.7837455868721008
1740240350535381200,7.07838134765625,-0.3416215777397156,-0.16326870024204254,-0.8076826930046082
1740240350545403100,7.088403076171875,-0.45691248774528503,-0.26205015182495117,-0.8956676721572876
1740240350555424300,7.09842431640625,-0.5452706217765808,-0.12248636037111282,-1.0456924438476562
1740240350565445000,7.108445068359375,-0.6100509762763977,0.1661081612110138,-1.2423142194747925
1740240350575467300,7.11846728515625,-0.6293319463729858,0.44687631726264954,-1.4429696798324585
1740240350585488400,7.12848828125,-0.6100701093673706,0.6739094257354736,-1.5767083168029785
1740240350595510300,7.13851025390625,-0.5446675419807434,0.7082087397575378,-1.667819619178772
1740240350605531100,7.14853125,-0.4228476285934448,0.6417772769927979,-1.7452534437179565
1740240350615552300,7.15855224609375,-0.250754714012146,0.5946635603904724,-1.7910706996917725
1740240350625574400,7.168574462890625,-0.1144416332244873,0.5115063786506653,-1.8204184770584106
1740240350635595300,7.17859521484375,-0.10227031260728836,0.3594602644443512,-1.798130750656128
1740240350645617200,7.1886171875,-0.19002120196819305,0.12138248234987259,-1.7617424726486206
1740240350655638300,7.19863818359375,-0.3222896456718445,-0.13758163154125214,-1.7535018920898438
1740240350665660400,7.208660400390625,-0.44502994418144226,-0.3208901882171631,-1.8170100450515747
1740240350675681300,7.218681396484375,-0.4986943006515503,-0.4591836631298065,-1.913238525390625
1740240350685702400,7.228702392578125,-0.5271533727645874,-0.5452277660369873,-1.9384160041809082
1740240350695724300,7.238724365234375,-0.5449182987213135,-0.5862026810646057,-1.8167338371276855
1740240350705745200,7.2487451171875,-0.5627883672714233,-0.4767206311225891,-1.597032070159912
1740240350715767300,7.258767333984375,-0.5836007595062256,-0.1886160969734192,-1.3350229263305664
1740240350725788400,7.268788330078125,-0.6084237694740295,0.09579433500766754,-1.03111732006073
1740240350735809300,7.278809326171875,-0.6104814410209656,0.3077561855316162,-0.6982152462005615
1740240350745831200,7.2888310546875,-0.6117046475410461,0.4582578241825104,-0.3896520733833313
1740240350755852300,7.298852294921875,-0.60350102186203,0.568912148475647,-0.18321888148784637
1740240350765874400,7.30887451171875,-0.5820620656013489,0.6068544387817383,-0.07414565980434418
1740240350775895300,7.318895263671875,-0.554060161113739,0.5416979193687439,0.01558912917971611
1740240350785916400,7.32891650390625,-0.5086897611618042,0.3902737498283386,0.14080403745174408
1740240350795938300,7.338938232421875,-0.448360413312912,0.24220851063728333,0.2962556779384613
1740240350805959200,7.348959228515625,-0.40765559673309326,0.06899811327457428,0.46172505617141724
1740240350815981300,7.358981201171875,-0.3815287947654724,-0.09641126543283463,0.5983870029449463
1740240350826002400,7.36900244140625,-0.3473500609397888,-0.2658120095729828,0.6953686475753784
1740240350836023300,7.379023193359375,-0.3162418305873871,-0.39483529329299927,0.7776980996131897
1740240350846045400,7.38904541015625,-0.30678150057792664,-0.49054157733917236,0.8696216344833374
1740240350856066600,7.399066650390625,-0.3236459493637085,-0.5187004804611206,0.9687503576278687
1740240350866088400,7.40908837890625,-0.35805851221084595,-0.48941877484321594,1.05406653881073
1740240350876109300,7.419109375,-0.37685465812683105,-0.4271298944950104,1.105582594871521
1740240350886130400,7.42913037109375,-0.38115352392196655,-0.3500281870365143,1.1160863637924194
1740240350896152600,7.439152587890625,-0.3838847279548645,-0.28224194049835205,1.08623468875885
1740240350906173400,7.44917333984375,-0.39005422592163086,-0.19595444202423096,1.0241849422454834
1740240350916195300,7.4591953125,-0.3914506733417511,-0.1172020360827446,0.9432650208473206
1740240350926216400,7.469216552734375,-0.39227864146232605,-0.034978266805410385,0.8420560956001282
1740240350936238600,7.479238525390625,-0.3859483003616333,0.06749086827039719,0.7473713755607605
1740240350946259500,7.489259521484375,-0.36060404777526855,0.11063434183597565,0.6740939617156982
1740240350956280600,7.499280517578125,-0.32670778036117554,0.1302904188632965,0.610601007938385
1740240350966302500,7.509302490234375,-0.2959573268890381,0.15505248308181763,0.546644389629364
1740240350976323300,7.5193232421875,-0.28046685457229614,0.19251658022403717,0.48571425676345825
1740240350986345500,7.529345458984375,-0.2776830494403839,0.2160370945930481,0.430519163608551
1740240350996366600,7.53936669921875,-0.2733334004878998,0.16684004664421082,0.3841698169708252
1740240351006387500,7.549387451171875,-0.23720629513263702,0.03887142613530159,0.3403104841709137
1740240351016409300,7.559409423828125,-0.22319111227989197,-0.05208861455321312,0.2766368091106415
1740240351026430500,7.569430419921875,-0.2229037582874298,-0.02635129541158676,0.1900435835123062
1740240351036452400,7.579452392578125,-0.21281801164150238,-0.045850228518247604,0.11509499698877335
1740240351046473500,7.589473388671875,-0.19606247544288635,-0.13993944227695465,0.04814179614186287
1740240351056494600,7.59949462890625,-0.1814785748720169,-0.21069252490997314,-0.0189378522336483
1740240351066516500,7.6095166015625,-0.17668594419956207,-0.2547665238380432,-0.04397183284163475
1740240351076537300,7.619537353515625,-0.16154736280441284,-0.23215259611606598,-0.05090542137622833
1740240351086559200,7.629559326171875,-0.1366151124238968,-0.18132269382476807,-0.04842335730791092
1740240351096580600,7.63958056640625,-0.09803751111030579,-0.14900675415992737,-0.049183208495378494
1740240351106602500,7.6496025390625,-0.0707092210650444,-0.11651671677827835,-0.06798192858695984
1740240351116623400,7.659623291015625,-0.04600086435675621,-0.094469353556633,-0.0985967218875885
1740240351126644500,7.66964453125,-0.028892185539007187,-0.06401770561933517,-0.13001270592212677
1740240351136666400,7.679666259765625,-0.015129651874303818,-0.015145216137170792,-0.1743481606245041
1740240351146687500,7.6896875,-0.013321898877620697,0.050960831344127655,-0.21605245769023895
1740240351156709400,7.69970947265625,-0.010859357193112373,0.10046307742595673,-0.23249103128910065
1740240351166730500,7.70973046875,-0.013234098441898823,0.12535299360752106,-0.22295637428760529
1740240351176751400,7.71975146484375,-0.017447656020522118,0.13080640137195587,-0.2113911211490631
1740240351186773200,7.729773193359375,-0.01667667180299759,0.1160823255777359,-0.2158050537109375
1740240351196794600,7.739794677734375,-0.021510781720280647,0.06640063226222992,-0.24004264175891876
1740240351206816500,7.74981640625,-0.024189122021198273,0.0058547332882881165,-0.26751741766929626
1740240351216837400,7.75983740234375,-0.01222570426762104,-0.004926767665892839,-0.2900688946247101
1740240351226858500,7.7698583984375,0.0016365814954042435,-0.0009075244888663292,-0.2858025133609772
1740240351236880400,7.77988037109375,0.012949300929903984,0.02035200037062168,-0.2613791227340698
1740240351246901500,7.789901611328125,0.023139622062444687,0.0733233392238617,-0.2385776787996292
1740240351256923400,7.79992333984375,0.02649499662220478,0.14408870041370392,-0.20454823970794678
1740240351266944500,7.809944580078125,0.0170503631234169,0.20074106752872467,-0.16268016397953033
1740240351276965400,7.81996533203125,-0.00840265117585659,0.24363531172275543,-0.1354338377714157
1740240351286987300,7.8299873046875,-0.029960408806800842,0.24431760609149933,-0.1318841129541397
1740240351297008600,7.840008544921875,-0.04343179240822792,0.18181458115577698,-0.1623704880475998
1740240351307030500,7.850030517578125,-0.06486145406961441,0.07582982629537582,-0.20936569571495056
1740240351317051400,7.860051513671875,-0.0717165395617485,-0.005711725447326899,-0.2507306635379791
1740240351327073300,7.8700732421875,-0.06640300154685974,-0.044853270053863525,-0.2750181555747986
1740240351337094400,7.880094482421875,-0.055274251848459244,-0.0786888524889946,-0.2545366883277893
1740240351347115500,7.890115478515625,-0.03760337829589844,-0.11021136492490768,-0.20092380046844482
1740240351357137400,7.900137451171875,-0.023818453773856163,-0.12810103595256805,-0.13580796122550964
1740240351367158500,7.910158447265625,-0.017379462718963623,-0.11452663689851761,-0.06653008610010147
1740240351377180400,7.920180419921875,-0.008275462314486504,-0.09080187976360321,0.003518776036798954
1740240351387201300,7.930201171875,0.004405711777508259,-0.08500736951828003,0.06932815164327621
1740240351397222400,7.940222412109375,0.022123325616121292,-0.07480397820472717,0.10839597135782242
1740240351407244500,7.95024462890625,0.028207050636410713,-0.06237953156232834,0.11757482588291168
1740240351417265400,7.960265380859375,0.03674061596393585,-0.04877424240112305,0.10754189640283585
1740240351427287300,7.970287353515625,0.04358387738466263,-0.06425359845161438,0.09400717914104462
1740240351437308400,7.980308349609375,0.04872073978185654,-0.09500978887081146,0.07661083340644836
1740240351447329500,7.99032958984375,0.05393014848232269,-0.11675743013620377,0.060007885098457336
1740240351457351400,8.000351318359375,0.05726871266961098,-0.12608560919761658,0.0492221899330616
1740240351467372500,8.01037255859375,0.05606416240334511,-0.13785997033119202,0.04716090112924576
1740240351477394400,8.02039453125,0.06363558769226074,-0.1657700538635254,0.07535616308450699
1740240351487415300,8.030415283203125,0.07539904117584229,-0.17900729179382324,0.09748516231775284
1740240351497437400,8.0404375,0.08516192436218262,-0.12594033777713776,0.11134185642004013
1740240351507458600,8.05045849609375,0.1012391597032547,-0.06380932778120041,0.12773574888706207
1740240351517479400,8.0604794921875,0.11282388120889664,-0.015338018536567688,0.15359653532505035
1740240351527501300,8.070501220703125,0.1180492714047432,0.020408527925610542,0.17299605906009674
1740240351537522400,8.0805224609375,0.1182422935962677,0.031128045171499252,0.16646376252174377
1740240351547544600,8.090544677734375,0.10834039747714996,-0.01299680583178997,0.13274814188480377
1740240351557565400,8.1005654296875,0.09077658504247665,-0.08620870113372803,0.09500394761562347
1740240351567586300,8.11058642578125,0.07072697579860687,-0.12238427996635437,0.08884751796722412
1740240351577608400,8.1206083984375,0.06140124797821045,-0.12730258703231812,0.13862071931362152
1740240351587629300,8.13062939453125,0.059577785432338715,-0.14423123002052307,0.20933856070041656
1740240351597651500,8.1406513671875,0.06130422651767731,-0.056576140224933624,0.22940342128276825
1740240351607672600,8.150672607421875,0.047795604914426804,0.06943638622760773,0.21983148157596588
1740240351617694500,8.160694580078125,0.007962757721543312,0.1950555443763733,0.20652031898498535
1740240351627715300,8.17071533203125,-0.015981191769242287,0.21923518180847168,0.1902286857366562
1740240351637736400,8.180736328125,-0.01977756805717945,0.1960165649652481,0.15796412527561188
1740240351647758600,8.190758544921875,-0.04251750186085701,0.1920844167470932,0.10229392349720001
1740240351657779500,8.200779541015624,-0.0535096675157547,0.14150241017341614,0.048143718391656876
1740240351667801300,8.21080126953125,-0.0560857430100441,0.07966595143079758,0.014019034802913666
1740240351677822500,8.220822509765625,-0.046512871980667114,0.048544153571128845,0.012418793514370918
1740240351687843300,8.23084326171875,-0.035204820334911346,0.08812485635280609,0.033217813819646835
1740240351697865500,8.240865478515625,-0.022830843925476074,0.1725745052099228,0.05467500910162926
1740240351707886300,8.25088623046875,0.006513729225844145,0.23418673872947693,0.08143312484025955
1740240351717908500,8.260908447265624,0.02364276349544525,0.2724739909172058,0.09532901644706726
1740240351727929300,8.270929443359375,0.032387781888246536,0.25154685974121094,0.12716630101203918
1740240351737951500,8.280951416015625,0.019851762801408768,0.21270851790905,0.16316504776477814
1740240351747972600,8.29097265625,-0.022714871913194656,0.16526085138320923,0.18872234225273132
1740240351757993500,8.300993408203125,-0.07538731396198273,0.13800106942653656,0.18841390311717987
1740240351768015400,8.311015380859375,-0.09864549338817596,0.1372508555650711,0.17369487881660461
1740240351778036500,8.321036376953124,-0.10500040650367737,0.13843491673469543,0.1669282168149948
1740240351788058600,8.33105859375,-0.09532274305820465,0.11485128849744797,0.1593368649482727
1740240351798079500,8.34107958984375,-0.048777736723423004,0.1045083999633789,0.16225972771644592
1740240351808100400,8.351100341796876,-0.041446056216955185,0.08287527412176132,0.19208766520023346
1740240351818122500,8.36112255859375,-0.0585721880197525,0.0875185951590538,0.2456888109445572
1740240351828143400,8.371143310546875,-0.051544107496738434,0.13433696329593658,0.3351055085659027
1740240351838164700,8.381164794921874,-0.03497821465134621,0.26857203245162964,0.453285813331604
1740240351848185900,8.391185791015625,-0.012899545952677727,0.3578934073448181,0.6317303776741028
1740240351858206700,8.401206787109375,0.02684544026851654,0.3554134964942932,0.8583733439445496
1740240351868228900,8.411228759765624,0.05074571445584297,0.2944928705692291,1.0743205547332764
1740240351878250000,8.42125,0.06747613102197647,0.22955584526062012,1.2049305438995361
1740240351888272000,8.43127197265625,0.07834688574075699,0.16936494410037994,1.2394062280654907
1740240351898292700,8.441292724609376,0.07932987064123154,0.16685810685157776,1.2305680513381958
1740240351908315000,8.45131494140625,-0.010210396721959114,0.2166498899459839,1.256191611289978
1740240351918336000,8.4613359375,-0.057217925786972046,0.3155532479286194,1.3441047668457031
1740240351928356900,8.47135693359375,0.028343847021460533,0.3229549825191498,1.5357428789138794
1740240351938378800,8.481378662109375,0.02495705522596836,0.25605106353759766,1.762620449066162
1740240351948399900,8.49139990234375,-0.036455173045396805,0.3822990357875824,1.8975601196289062
1740240351958422000,8.501422119140624,-0.07399684190750122,0.39563682675361633,2.009157657623291
1740240351968443000,8.51144287109375,-0.07661605626344681,0.29370567202568054,2.1121842861175537
1740240351978464000,8.521464111328125,-0.21446721255779266,0.25004586577415466,2.191316604614258
1740240351988486000,8.53148583984375,-0.24984730780124664,0.3073344826698303,2.239706516265869
1740240351998506800,8.5415068359375,-0.17117716372013092,0.32907944917678833,2.320772171020508
1740240352008528600,8.551528564453125,-0.08805538713932037,0.2725570499897003,2.4073572158813477
1740240352018550000,8.561550048828124,-0.03239160776138306,0.18682928383350372,2.4052493572235107
1740240352028572000,8.571572021484375,0.046096544712781906,0.09560110419988632,2.306260347366333
1740240352038592800,8.5815927734375,0.08809779584407806,0.007833307608962059,2.182056427001953
1740240352048614000,8.59161376953125,0.092585489153862,-0.06557406485080719,2.1037442684173584
1740240352058635800,8.6016357421875,0.1046004667878151,-0.11912361532449722,2.084683656692505
1740240352068657000,8.611656982421875,0.12303274124860764,-0.137771874666214,2.0941667556762695
1740240352078678800,8.6216787109375,0.16976675391197205,-0.1592968851327896,2.103853702545166
1740240352088700000,8.631699951171875,0.2180701047182083,-0.18113161623477936,2.058751344680786
1740240352098721800,8.6417216796875,0.25827085971832275,-0.1829931139945984,1.9430887699127197
1740240352108742700,8.65174267578125,0.25794193148612976,-0.1904531568288803,1.851232886314392
1740240352118764000,8.661763916015625,0.15598058700561523,-0.1452658623456955,1.8324389457702637
1740240352128786000,8.671785888671875,0.08600442111492157,-0.052115149796009064,1.8177790641784668
1740240352138806800,8.681806884765624,0.22756743431091309,-0.07659696787595749,1.8355700969696045
1740240352148828700,8.69182861328125,0.3059879243373871,-0.126967191696167,1.8806217908859253
1740240352158849800,8.701849853515625,0.2809388339519501,-0.08885978162288666,1.8620191812515259
1740240352168871000,8.711870849609374,0.25658395886421204,-0.046162646263837814,1.8366882801055908
1740240352178892800,8.721892822265625,0.22633859515190125,-0.02545120194554329,1.820832371711731
1740240352188914000,8.731913818359375,0.2228245586156845,0.009485743008553982,1.7531611919403076
1740240352198935800,8.741935791015624,0.25929027795791626,0.04240996763110161,1.6273744106292725
1740240352208956700,8.751956787109375,0.3023993968963623,0.04140995070338249,1.4681977033615112
1740240352218978000,8.76197802734375,0.33936604857444763,0.01851070486009121,1.3173472881317139
1740240352229000000,8.772,0.3021739423274994,0.014974292367696762,1.189740538597107
1740240352239020800,8.782020751953125,0.3325670659542084,0.01357407309114933,1.1267163753509521
1740240352249042700,8.792042724609376,0.4023280441761017,0.017142176628112793,1.1650933027267456
1740240352259063800,8.802063720703124,0.3778000473976135,0.10624301433563232,1.2210980653762817
1740240352269086000,8.8120859375,0.3750231862068176,0.2766326069831848,1.2450271844863892
1740240352279106800,8.82210693359375,0.27663397789001465,0.4641306698322296,1.1258116960525513
1740240352289128000,8.8321279296875,0.2578222155570984,0.4713883399963379,1.0057151317596436
1740240352299149800,8.84214990234375,0.2918090522289276,0.3449842035770416,0.938879668712616
1740240352309170700,8.852170654296875,0.30730360746383667,0.1497979313135147,0.8890241980552673
1740240352319192800,8.86219287109375,0.32303494215011597,-0.07201706618070602,0.8301364779472351
1740240352329214000,8.8722138671875,0.33352193236351013,-0.1851382851600647,0.7372658848762512
1740240352339235800,8.88223583984375,0.35252103209495544,-0.17559318244457245,0.6005021929740906
1740240352349256700,8.892256591796874,0.4203687906265259,-0.08771338313817978,0.4299781024456024
1740240352359277800,8.90227783203125,0.41742756962776184,0.0030762795358896255,0.2839770019054413
1740240352369300000,8.912300048828126,0.3555106818675995,-0.08591964095830917,0.1179899051785469
1740240352379320800,8.92232080078125,0.29187288880348206,-0.17321866750717163,-0.10500168055295944
1740240352389342700,8.9323427734375,0.23943552374839783,-0.23016078770160675,-0.3129069209098816
1740240352399363800,8.94236376953125,0.2268793284893036,-0.22863566875457764,-0.516092836856842
1740240352409384700,8.952384765625,0.23556123673915863,-0.15211185812950134,-0.7256146669387817
1740240352419406800,8.96240673828125,0.2769051492214203,-0.08218654245138168,-0.9537203907966614
1740240352429428000,8.972427978515626,0.31471484899520874,-0.004283220507204533,-1.1879756450653076
1740240352439449900,8.982449951171875,0.36226320266723633,-0.026739921420812607,-1.3885868787765503
1740240352449470700,8.992470703125,0.40709325671195984,-0.004021025728434324,-1.5234850645065308
1740240352459492900,9.002492919921876,0.4869214594364166,0.05541275441646576,-1.5653777122497559
1740240352469514000,9.012513916015624,0.5984887480735779,0.21490414440631866,-1.5480520725250244
1740240352479534800,9.022534912109375,0.6802123785018921,0.34880974888801575,-1.5057041645050049
1740240352489556700,9.032556640625,0.707931399345398,0.47228559851646423,-1.4824705123901367
1740240352499577900,9.042577880859374,0.6680023670196533,0.7270726561546326,-1.5752023458480835
1740240352509600000,9.05260009765625,0.6223506927490234,0.8357295989990234,-1.6405019760131836
1740240352519620900,9.062620849609376,0.5688116550445557,0.8352643251419067,-1.6641392707824707
1740240352529642000,9.07264208984375,0.47131675481796265,0.7164995670318604,-1.6468443870544434
1740240352539664000,9.082663818359375,0.36981233954429626,0.5035157799720764,-1.5709141492843628
1740240352549684700,9.092684814453126,0.30187588930130005,0.36807993054389954,-1.395904779434204
1740240352559707000,9.102706787109375,0.2595756947994232,0.4169588088989258,-1.2397009134292603
1740240352569728000,9.11272802734375,0.23039838671684265,0.5324750542640686,-1.1577520370483398
1740240352579750000,9.12275,0.19698865711688995,0.60039883852005,-1.1524702310562134
1740240352589770800,9.132770751953124,0.16806405782699585,0.628942608833313,-1.1814136505126953
1740240352599791900,9.1427919921875,0.13194644451141357,0.6141102313995361,-1.2092972993850708
1740240352609814000,9.15281396484375,0.06307869404554367,0.5331687927246094,-1.2182217836380005
1740240352619835000,9.1628349609375,-0.02900839038193226,0.4287501275539398,-1.2085257768630981
1740240352629856800,9.172856689453125,-0.08018768578767776,0.18791593611240387,-1.1527152061462402
1740240352639878000,9.1828779296875,-0.12860359251499176,-0.08221733570098877,-1.0765933990478516
1740240352649899800,9.192899658203125,-0.17311672866344452,-0.10012070089578629,-1.0384100675582886
1740240352659921000,9.2029208984375,-0.16549068689346313,0.1445518285036087,-1.0063706636428833
1740240352669942000,9.21294189453125,-0.1290075033903122,0.5646223425865173,-0.989207923412323
1740240352679964000,9.2229638671875,-0.0531172901391983,0.9360916614532471,-0.9995104074478149
1740240352689984800,9.23298486328125,0.002912422176450491,1.0742722749710083,-1.0825481414794922
1740240352700006700,9.243006591796876,-0.037440214306116104,1.0051912069320679,-1.2746602296829224
1740240352710028000,9.253028076171875,-0.18261152505874634,0.7161275148391724,-1.5246700048446655
1740240352720049000,9.263048828125,-0.3373504877090454,0.3018757700920105,-1.7752671241760254
1740240352730070800,9.27307080078125,-0.4760444462299347,-0.07433488219976425,-1.9755363464355469
1740240352740092000,9.283091796875,-0.5891377925872803,-0.2831762135028839,-2.0696537494659424
1740240352750113800,9.29311376953125,-0.6372413635253906,-0.27012860774993896,-2.07114839553833
1740240352760135000,9.303135009765626,-0.580120861530304,-0.005130359437316656,-1.9872857332229614
1740240352770156800,9.31315673828125,-0.49135684967041016,0.47703519463539124,-1.9026216268539429
1740240352780178000,9.323177978515625,-0.4595463275909424,1.069515347480774,-1.9066014289855957
1740240352790198800,9.33319873046875,-0.4549153447151184,1.5253875255584717,-2.036231279373169
1740240352800220700,9.343220703125,-0.4782249927520752,1.6554354429244995,-2.237894296646118
1740240352810242000,9.353241943359375,-0.5493239164352417,1.5368704795837402,-2.465792655944824
1740240352820264000,9.363263916015624,-0.6846789717674255,1.2562569379806519,-2.662184953689575
1740240352830284800,9.373284912109375,-0.6937792897224426,0.789017379283905,-2.782479763031006
1740240352840306400,9.383306396484375,-0.8159541487693787,0.4395192861557007,-2.899818181991577
1740240352850327600,9.39332763671875,-0.9134237170219421,0.2022252380847931,-2.9952430725097656
1740240352860348400,9.403348388671875,-0.8803033232688904,0.06106196343898773,-3.043978691101074
1740240352870370300,9.413370361328125,-0.7636414170265198,0.039610203355550766,-3.053384780883789
1740240352880391400,9.423391357421876,-0.6873659491539001,0.11558445543050766,-3.018472671508789
1740240352890413600,9.43341357421875,-0.6895657181739807,0.21014557778835297,-2.952033042907715
1740240352900434400,9.443434326171875,-0.7033412456512451,0.31341123580932617,-2.868378162384033
1740240352910455600,9.45345556640625,-0.6309900879859924,0.3938395082950592,-2.8128504753112793
1740240352920477400,9.4634775390625,-0.3977903723716736,0.42641183733940125,-2.826853036880493
1740240352930498300,9.473498291015625,-0.03362812474370003,0.32955053448677063,-2.888223648071289
1740240352940520400,9.4835205078125,0.34456467628479004,0.24580024182796478,-2.966892719268799
1740240352950541600,9.49354150390625,0.6119548678398132,0.12393157929182053,-2.9425013065338135
1740240352960563500,9.5035634765625,0.771626353263855,-0.009309157729148865,-2.8210482597351074
1740240352970584300,9.513584228515626,0.9077115058898926,-0.11503984779119492,-2.623680591583252
1740240352980605400,9.52360546875,0.8956519961357117,-0.09444860368967056,-2.400301218032837
1740240352990627600,9.533627685546875,0.9774102568626404,-0.16172857582569122,-2.172912359237671
1740240353000648400,9.5436484375,1.2703843116760254,-0.5710140466690063,-1.8476544618606567
1740240353010670300,9.55367041015625,1.296038031578064,-0.5756726861000061,-1.6686439514160156
1740240353020691500,9.56369140625,1.3276782035827637,-0.5403508543968201,-1.5667062997817993
1740240353030712300,9.57371240234375,1.3906965255737305,-0.6511678695678711,-1.4114490747451782
1740240353040734500,9.583734375,1.4321660995483398,-0.7567444443702698,-1.2008150815963745
1740240353050755600,9.593755615234375,1.523233413696289,-0.8578135371208191,-0.9217078685760498
1740240353060777500,9.603777587890624,1.5957813262939453,-0.8340752124786377,-0.6176674365997314
1740240353070798300,9.61379833984375,1.5641592741012573,-0.661600649356842,-0.32862311601638794
1740240353080820500,9.623820556640625,1.4359794855117798,-0.517372190952301,-0.05656682699918747
1740240353090841600,9.633841552734374,1.2586984634399414,-0.5015727281570435,0.12099996954202652
1740240353100862500,9.643862548828125,1.1914888620376587,-0.739707887172699,0.14019961655139923
1740240353110884400,9.65388427734375,1.2899565696716309,-1.0226123332977295,0.03968338668346405
1740240353120905500,9.663905517578126,1.4393643140792847,-1.1888223886489868,-0.06723661720752716
1740240353130927600,9.673927734375,1.4379925727844238,-1.2505736351013184,-0.05227471515536308
1740240353140948500,9.683948486328125,1.282294511795044,-1.3669586181640625,0.09602261334657669
1740240353150970400,9.693970458984374,1.0216964483261108,-1.688594937324524,0.29928678274154663
1740240353160991500,9.703991455078125,0.6781842708587646,-2.0679068565368652,0.42047029733657837
1740240353171012400,9.714012451171875,0.2841958999633789,-2.3347136974334717,0.43965065479278564
1740240353181034500,9.724034423828124,-0.10882166773080826,-2.405681610107422,0.40033531188964844
1740240353191055600,9.7340556640625,-0.379680335521698,-2.4502859115600586,0.32783129811286926
1740240353201077500,9.744077392578125,-0.46768859028816223,-2.53287935256958,0.2626959979534149
1740240353211098400,9.754098388671874,-0.4317566752433777,-2.4439685344696045,0.24528133869171143
1740240353221119500,9.764119384765625,-0.3371950387954712,-2.011430263519287,0.355599045753479
1740240353231141600,9.7741416015625,-0.23738452792167664,-1.3879292011260986,0.5657848119735718
1740240353241162500,9.78416259765625,-0.15222305059432983,-0.977111279964447,0.7940484285354614
1740240353251184400,9.794184326171875,-0.1082976683974266,-0.8359272480010986,0.9504649639129639
1740240353261205500,9.80420556640625,-0.06280418485403061,-0.8061645030975342,1.0067648887634277
1740240353271227400,9.814227294921874,0.051554083824157715,-0.7446145415306091,1.0279202461242676
1740240353281248500,9.82424853515625,0.19800545275211334,-0.7111974358558655,1.0776971578598022
1740240353291269600,9.83426953125,0.3113972544670105,-0.754638135433197,1.1354265213012695
1740240353301291500,9.84429150390625,0.3979678452014923,-0.8824196457862854,1.170455813407898
1740240353311312400,9.8543125,0.4548353850841522,-1.0430543422698975,1.1674432754516602
1740240353321334300,9.864334228515625,0.5018916726112366,-1.1401216983795166,1.1281415224075317
1740240353331355600,9.874355712890624,0.5608819723129272,-1.1357293128967285,1.1011415719985962
1740240353341376500,9.88437646484375,0.6611061692237854,-1.003083348274231,1.1157753467559814
1740240353351398400,9.8943984375,0.8123193979263306,-0.8398301601409912,1.176038384437561
1740240353361419500,9.90441943359375,0.9624021649360657,-0.7863718271255493,1.2561737298965454
1740240353371441400,9.91444140625,1.0521047115325928,-0.7916699051856995,1.2946736812591553
1740240353381462300,9.924462158203125,1.077108383178711,-0.8100382685661316,1.2868510484695435
1740240353391484400,9.934484375,1.0739644765853882,-0.7631090879440308,1.2668118476867676
1740240353401505500,9.944505615234375,1.0795153379440308,-0.7316719889640808,1.2755627632141113
1740240353411526400,9.9545263671875,1.0875914096832275,-0.7360033392906189,1.298465371131897
1740240353421548300,9.96454833984375,1.1077314615249634,-0.7057316303253174,1.3089076280593872
1740240353431569400,9.9745693359375,1.178578495979309,-0.6106860637664795,1.3358091115951538
1740240353441591600,9.984591552734376,1.295991063117981,-0.4869353473186493,1.3959234952926636
1740240353451612400,9.9946123046875,1.4252489805221558,-0.42075657844543457,1.4916502237319946
1740240353461634300,10.00463427734375,1.4794930219650269,-0.41738948225975037,1.5664286613464355
1740240353471655400,10.014655517578126,1.4385309219360352,-0.41450047492980957,1.59882652759552
1740240353481676300,10.02467626953125,1.3481861352920532,-0.4500826299190521,1.6279730796813965
1740240353491698400,10.034698486328125,1.2682732343673706,-0.5212795734405518,1.677382230758667
1740240353501719600,10.044719482421876,1.2394131422042847,-0.5411602258682251,1.7339833974838257
1740240353511741400,10.054741455078124,1.236165165901184,-0.5060323476791382,1.8239097595214844
1740240353521762300,10.06476220703125,1.2502307891845703,-0.4538690745830536,1.9400129318237305
1740240353531783400,10.074783447265625,1.242927074432373,-0.43809065222740173,2.03371000289917
1740240353541805600,10.0848056640625,1.225801706314087,-0.46355411410331726,2.06612491607666
1740240353551826400,10.094826416015625,1.1936498880386353,-0.4132094383239746,2.0494022369384766
1740240353561848300,10.104848388671876,1.1867249011993408,-0.3606089651584625,2.035534381866455
1740240353571869400,10.114869384765624,1.2044857740402222,-0.34150558710098267,2.044691324234009
1740240353581891600,10.1248916015625,1.244102120399475,-0.2792671024799347,2.05889630317688
1740240353591912400,10.134912353515626,1.2827552556991577,-0.22720575332641602,2.0890660285949707
1740240353601933600,10.14493359375,1.2938708066940308,-0.21951939165592194,2.115769147872925
1740240353611955500,10.15495556640625,1.3155182600021362,-0.2566870152950287,2.0941860675811768
1740240353621976300,10.164976318359376,1.3388755321502686,-0.3441239893436432,2.070099115371704
1740240353631998500,10.17499853515625,1.3788220882415771,-0.3480827808380127,2.0434200763702393
1740240353642019600,10.18501953125,1.4430146217346191,-0.26859593391418457,2.008667469024658
1740240353652041500,10.19504150390625,1.4803510904312134,-0.23793520033359528,2.01112961769104
1740240353662062300,10.205062255859374,1.46701180934906,-0.2012658417224884,2.0455822944641113
1740240353672083500,10.21508349609375,1.4580036401748657,-0.133264422416687,2.0953919887542725
1740240353682105600,10.225105712890626,1.481405258178711,-0.05799378827214241,2.1553494930267334
1740240353692126500,10.23512646484375,1.5356870889663696,0.01313631422817707,2.201814889907837
1740240353702148400,10.2451484375,1.5842496156692505,0.06164601072669029,2.229801893234253
1740240353712169500,10.25516943359375,1.5930596590042114,0.09206490218639374,2.243651866912842
1740240353722191400,10.26519140625,1.5849441289901733,0.08121670037508011,2.233060359954834
1740240353732212500,10.27521240234375,1.5672357082366943,0.08954733610153198,2.1933274269104004
1740240353742233600,10.285233642578126,1.542214274406433,0.1806902289390564,2.1334807872772217
1740240353752255500,10.29525537109375,1.5451490879058838,0.2980442941188812,2.0850911140441895
1740240353762276400,10.3052763671875,1.568241834640503,0.3857811391353607,2.0693492889404297
1740240353772298200,10.31529833984375,1.5977083444595337,0.4115557372570038,2.0516812801361084
1740240353782319600,10.325319580078125,1.6194965839385986,0.3929886221885681,1.997393012046814
1740240353792340500,10.335340576171875,1.650313377380371,0.3465889096260071,1.9236183166503906
1740240353802362400,10.3453623046875,1.6732468605041504,0.32479119300842285,1.8563330173492432
1740240353812383500,10.355383544921875,1.677770733833313,0.3456019461154938,1.7909526824951172
1740240353822405400,10.3654052734375,1.6942805051803589,0.3848990499973297,1.7210365533828735
1740240353832426500,10.375426513671876,1.7223126888275146,0.44852304458618164,1.6665122509002686
1740240353842448600,10.38544873046875,1.7422327995300293,0.5044797658920288,1.6405407190322876
1740240353852469800,10.3954697265625,1.7532809972763062,0.5948168635368347,1.615847110748291
1740240353862491000,10.405490966796876,1.7559489011764526,0.7047424912452698,1.5874030590057373
1740240353872512800,10.4155126953125,1.7595045566558838,0.7861132621765137,1.5364376306533813
1740240353882534000,10.425533935546875,1.7644597291946411,0.8810301423072815,1.466884732246399
1740240353892555800,10.4355556640625,1.7663596868515015,0.9237880110740662,1.384305477142334
1740240353902576600,10.44557666015625,1.760593295097351,0.8889232277870178,1.2922406196594238
1740240353912598800,10.455598876953125,1.7463120222091675,0.9032145142555237,1.1810892820358276
1740240353922620000,10.465619873046874,1.7239353656768799,0.9386447668075562,1.0707122087478638
1740240353932640800,10.475640869140625,1.6774286031723022,0.9246026873588562,1.009195327758789
1740240353942662700,10.48566259765625,1.618735671043396,0.9478368163108826,0.9567596316337585
1740240353952683800,10.495683837890626,1.5575066804885864,0.9902812242507935,0.8728319406509399
1740240353962706000,10.505705810546875,1.4943454265594482,1.084225058555603,0.7583456635475159
1740240353972726800,10.515726806640625,1.4238563776016235,1.1735762357711792,0.6466180682182312
1740240353982748000,10.525747802734376,1.3457423448562622,1.3069368600845337,0.5599170327186584
1740240353992769800,10.535769775390625,1.262819766998291,1.5197895765304565,0.48275214433670044
1740240354002790700,10.545790771484375,1.1922104358673096,1.6375772953033447,0.44300612807273865
1740240354012812800,10.555812744140624,1.132599115371704,1.643166422843933,0.4113270342350006
1740240354022834000,10.565833984375,1.070542573928833,1.6454275846481323,0.32867923378944397
1740240354032855800,10.575855712890625,1.0094327926635742,1.6869683265686035,0.22258715331554413
1740240354042876700,10.585876708984374,0.9536778926849365,1.75149405002594,0.15082338452339172
1740240354052897800,10.595897705078125,0.8674063682556152,1.870829463005066,0.09080450981855392
1740240354062920000,10.605919921875,0.7496228814125061,2.0501608848571777,0.029633626341819763
1740240354072940800,10.61594091796875,0.6037383675575256,2.1593177318573,0.011912421323359013
1740240354082962700,10.625962646484375,0.48428794741630554,2.258790969848633,0.018294792622327805
1740240354092983800,10.63598388671875,0.41398075222969055,2.36832332611084,0.029782338067889214
1740240354103006000,10.646005859375,0.3764958381652832,2.496312141418457,0.057488854974508286
1740240354113026800,10.65602685546875,0.333099365234375,2.629270076751709,0.05665421858429909
1740240354123048000,10.6660478515625,0.2549877166748047,2.7380197048187256,-0.027332400903105736
1740240354133069800,10.67606982421875,0.15323926508426666,2.83440899848938,-0.15046072006225586
1740240354143090700,10.686090576171875,0.03728790953755379,2.9526569843292236,-0.26122984290122986
1740240354153112800,10.69611279296875,-0.05137724429368973,3.0581560134887695,-0.3402535319328308
1740240354163134000,10.706134033203124,-0.041067082434892654,3.029698371887207,-0.39835840463638306
1740240354173154800,10.71615478515625,0.052621327340602875,2.803344249725342,-0.42368826270103455
1740240354183176700,10.7261767578125,0.10236820578575134,2.5574488639831543,-0.3926531672477722
1740240354193197800,10.73619775390625,0.0484602265059948,2.5041558742523193,-0.32219016551971436
1740240354203220000,10.746219970703125,-0.08974186331033707,2.6484322547912598,-0.20204806327819824
1740240354213240800,10.75624072265625,-0.23867222666740417,2.8431780338287354,-0.09708143770694733
1740240354223262700,10.7662626953125,-0.3112466633319855,2.976240873336792,-0.09442834556102753
1740240354233283800,10.776283935546875,-0.2613725960254669,2.9785921573638916,-0.1815645843744278
1740240354243304700,10.7863046875,-0.13073377311229706,2.7491843700408936,-0.2630724012851715
1740240354253326800,10.796326904296874,-0.013862548395991325,2.4967992305755615,-0.34490466117858887
1740240354263348000,10.806347900390625,0.05635272338986397,2.3717360496520996,-0.3912881314754486
1740240354273369900,10.816369873046876,0.16497747600078583,2.3203041553497314,-0.3642283082008362
1740240354283390700,10.826390625,0.2749674916267395,2.3046281337738037,-0.305730938911438
1740240354293412600,10.83641259765625,0.3146611154079437,2.3952646255493164,-0.24211283028125763
1740240354303434000,10.84643408203125,0.284436970949173,2.6000051498413086,-0.17730166018009186
1740240354313454800,10.856454833984374,0.23590192198753357,2.6936824321746826,-0.08186408132314682
1740240354323476700,10.866476806640625,0.18240287899971008,2.6882028579711914,0.022349348291754723
1740240354333497900,10.876497802734375,0.1179056465625763,2.666762351989746,0.1064746156334877
1740240354343519700,10.886519775390624,0.09422004967927933,2.5773468017578125,0.16222453117370605
1740240354353540900,10.896540771484375,0.1160702183842659,2.418722152709961,0.192079097032547
1740240354363562800,10.906562744140626,0.1066068708896637,2.3457844257354736,0.192118838429451
1740240354373584000,10.916583984375,0.07810439169406891,2.3347208499908447,0.11802569776773453
1740240354383604700,10.926604736328125,0.095474973320961,2.229630708694458,-0.007075704168528318
1740240354393626600,10.936626708984376,0.14462412893772125,2.1078672409057617,-0.14571668207645416
1740240354403648000,10.94664794921875,0.16365182399749756,2.0530192852020264,-0.2386244535446167
1740240354413670000,10.956669921875,0.11152124404907227,2.127551555633545,-0.17608730494976044
1740240354423690800,10.966690673828126,0.017985206097364426,2.327258825302124,0.008184101432561874
1740240354433711900,10.9767119140625,-0.059581492096185684,2.443606376647949,0.16379128396511078
1740240354443733800,10.986733642578125,-0.1439429521560669,2.4234859943389893,0.21198303997516632
1740240354453755000,10.9967548828125,-0.19553476572036743,2.282850503921509,0.17113786935806274
1740240354463776800,11.00677685546875,-0.21329525113105774,2.0468897819519043,0.12182070314884186
1740240354473798000,11.0167978515625,-0.23636648058891296,1.8441721200942993,0.10992516577243805
1740240354483819800,11.02681982421875,-0.2568508982658386,1.6974122524261475,0.1373937577009201
1740240354493840600,11.036840576171874,-0.29000887274742126,1.6573697328567505,0.2558647394180298
1740240354503862000,11.046862060546875,-0.36041346192359924,1.7838200330734253,0.4152451753616333
1740240354513884000,11.0568837890625,-0.4846206307411194,1.9604074954986572,0.6006022691726685
1740240354523904800,11.06690478515625,-0.5902994275093079,1.9800103902816772,0.7562487125396729
1740240354533926700,11.0769267578125,-0.6535356640815735,1.8061691522598267,0.8147117495536804
1740240354543947800,11.08694775390625,-0.694083034992218,1.5561145544052124,0.759929895401001
1740240354553970000,11.096969970703125,-0.7446399331092834,1.3361494541168213,0.6911726593971252
1740240354563990800,11.10699072265625,-0.8020012378692627,1.209068775177002,0.6748032569885254
1740240354574012000,11.117011962890626,-0.8367893099784851,1.194574236869812,0.704499363899231
1740240354584033800,11.12703369140625,-0.7959580421447754,1.1803773641586304,0.7483490109443665
1740240354594054700,11.1370546875,-0.7310112714767456,1.113690972328186,0.7951835989952087
1740240354604076800,11.147076904296876,-0.7004489898681641,1.059044361114502,0.8570067882537842
1740240354614098000,11.157097900390625,-0.7347957491874695,1.0501652956008911,0.9578300714492798
1740240354624118800,11.167118896484375,-0.8136997818946838,1.0428351163864136,1.0708961486816406
1740240354634140700,11.177140625,-0.8690679669380188,0.9225848913192749,1.0948835611343384
1740240354644161800,11.187161865234375,-0.9324812889099121,0.7405099272727966,1.0483980178833008
1740240354654184000,11.197183837890625,-0.9965625405311584,0.6138174533843994,1.0209182500839233
1740240354664204800,11.207204833984376,-1.0708106756210327,0.627288818359375,1.079082727432251
1740240354674226700,11.217226806640625,-1.1354596614837646,0.7317180037498474,1.1716115474700928
1740240354684247800,11.227247802734375,-1.1784601211547852,0.826774537563324,1.2474312782287598
1740240354694268700,11.2372685546875,-1.2144088745117188,0.852613627910614,1.3003877401351929
1740240354704290800,11.247290771484375,-1.2554197311401367,0.7591684460639954,1.33980131149292
1740240354714312000,11.25731201171875,-1.3014780282974243,0.647951602935791,1.3596570491790771
1740240354724333800,11.267333740234376,-1.346864938735962,0.5783282518386841,1.384900450706482
1740240354734354700,11.277354736328125,-1.3698983192443848,0.5443809032440186,1.399601936340332
1740240354744375800,11.287375732421875,-1.3380954265594482,0.4927331805229187,1.3851970434188843
1740240354754398000,11.29739794921875,-1.257118821144104,0.4139350354671478,1.3684837818145752
1740240354764418800,11.307418701171875,-1.1524500846862793,0.2988388240337372,1.3643423318862915
1740240354774440700,11.317440673828125,-1.0634610652923584,0.171473428606987,1.3590590953826904
1740240354784461800,11.3274619140625,-0.9995733499526978,0.045254431664943695,1.3432453870773315
1740240354794484000,11.33748388671875,-0.9696732759475708,-0.10489378869533539,1.3274438381195068
1740240354804504800,11.3475048828125,-0.9806286096572876,-0.2516559958457947,1.3206520080566406
1740240354814526000,11.35752587890625,-1.001537561416626,-0.3250969350337982,1.3185864686965942
1740240354824547800,11.3675478515625,-1.0059102773666382,-0.37228816747665405,1.2996275424957275
1740240354834568700,11.377568603515625,-1.004193902015686,-0.4078054130077362,1.2844080924987793
1740240354844591400,11.38759130859375,-0.9827514886856079,-0.4049997627735138,1.2805209159851074
1740240354854612200,11.3976123046875,-0.9576985836029053,-0.39034759998321533,1.2768641710281372
1740240354864634600,11.407634521484376,-0.9525532126426697,-0.38862335681915283,1.2678163051605225
1740240354874655500,11.417655517578124,-0.9723612666130066,-0.4319585859775543,1.2564141750335693
1740240354884676400,11.42767626953125,-1.0050606727600098,-0.5829497575759888,1.24844491481781
1740240354894698500,11.437698486328125,-1.0442708730697632,-0.738049328327179,1.2447165250778198
1740240354904719400,11.44771923828125,-1.0963107347488403,-0.8686034083366394,1.2578760385513306
1740240354914741500,11.457741455078125,-1.1405826807022095,-0.9780236482620239,1.297065258026123
1740240354924762400,11.467762451171875,-1.195107340812683,-1.0385687351226807,1.3411320447921753
1740240354934784500,11.477784423828124,-1.2513394355773926,-1.0828237533569336,1.368726134300232
1740240354944805400,11.487805419921875,-1.294130563735962,-1.1460295915603638,1.3510398864746094
1740240354954826200,11.497826171875,-1.3392565250396729,-1.1812156438827515,1.298933744430542
1740240354964848600,11.5078486328125,-1.3715662956237793,-1.130751371383667,1.2503656148910522
1740240354974869500,11.517869384765625,-1.3714847564697266,-1.0333824157714844,1.2226753234863281
1740240354984891400,11.527891357421876,-1.3401873111724854,-0.9447661638259888,1.2141270637512207
1740240354994912500,11.53791259765625,-1.2888351678848267,-0.8813536763191223,1.2169406414031982
1740240355004933400,11.547933349609375,-1.2251967191696167,-0.8648958802223206,1.2252088785171509
1740240355014955500,11.55795556640625,-1.1749516725540161,-0.9019711017608643,1.2149090766906738
1740240355024976400,11.567976318359374,-1.1565682888031006,-0.9867098927497864,1.1796367168426514
1740240355034998500,11.57799853515625,-1.1752146482467651,-1.0924373865127563,1.131103515625
1740240355045019400,11.588019287109375,-1.2119004726409912,-1.203108310699463,1.0932557582855225
1740240355055041300,11.598041259765624,-1.2477275133132935,-1.3146958351135254,1.0721968412399292
1740240355065062400,11.6080625,-1.258636236190796,-1.4215006828308105,1.0441880226135254
1740240355075083500,11.61808349609375,-1.239487648010254,-1.5048085451126099,0.9795597195625305
1740240355085105400,11.62810546875,-1.208246111869812,-1.5499651432037354,0.8969613313674927
1740240355095126300,11.638126220703125,-1.179484248161316,-1.5891025066375732,0.8231459856033325
1740240355105148400,11.6481484375,-1.1713663339614868,-1.6072005033493042,0.7730027437210083
1740240355115169500,11.65816943359375,-1.1581405401229858,-1.587839126586914,0.7400144338607788
1740240355125190400,11.6681904296875,-1.1401466131210327,-1.5796864032745361,0.7217674255371094
1740240355135212500,11.678212646484376,-1.1121972799301147,-1.6477397680282593,0.709693193435669
1740240355145233400,11.6882333984375,-1.0691577196121216,-1.774784803390503,0.7048057317733765
1740240355155255300,11.69825537109375,-1.0208364725112915,-1.944098949432373,0.6903141736984253
1740240355165276400,11.7082763671875,-0.9666140079498291,-2.140195369720459,0.6783702373504639
1740240355175298600,11.718298583984375,-0.9087938666343689,-2.327316999435425,0.6603680849075317
1740240355185319400,11.7283193359375,-0.861438512802124,-2.5335023403167725,0.6204184293746948
1740240355195340300,11.73834033203125,-0.8171547055244446,-2.7530202865600586,0.553307056427002
1740240355205362400,11.748362548828124,-0.7724614143371582,-2.9044876098632812,0.4720369279384613
1740240355215383600,11.758383544921875,-0.689696729183197,-2.9427943229675293,0.3629128336906433
1740240355225405400,11.768405517578126,-0.5581215620040894,-2.9323458671569824,0.2591150104999542
1740240355235426300,11.77842626953125,-0.42966026067733765,-2.9189772605895996,0.18745681643486023
1740240355245447400,11.788447509765625,-0.3308773636817932,-2.9320485591888428,0.1268322914838791
1740240355255469300,11.79846923828125,-0.2849540710449219,-2.910501480102539,0.06952479481697083
1740240355265490200,11.808490234375,-0.24667835235595703,-2.889219284057617,0.027514763176441193
1740240355275512600,11.8185126953125,-0.21628741919994354,-2.91786789894104,0.011870556510984898
1740240355285533400,11.828533447265626,-0.2228599637746811,-2.9284164905548096,-0.011968410573899746
1740240355295555300,11.838555419921875,-0.22960655391216278,-2.918325185775757,-0.05605997145175934
1740240355305576400,11.848576416015625,-0.2048361897468567,-2.8661227226257324,-0.0767921507358551
1740240355315597300,11.858597412109376,-0.15827827155590057,-2.7826948165893555,-0.09398072212934494
1740240355325619500,11.868619384765625,-0.10990540683269501,-2.732612133026123,-0.11884069442749023
1740240355335640300,11.878640380859375,-0.0699787586927414,-2.7545485496520996,-0.13876299560070038
1740240355345662500,11.888662353515626,-0.04696238040924072,-2.799877405166626,-0.1326470524072647
1740240355355683300,11.898683349609374,-0.04954804480075836,-2.847529888153076,-0.10326012969017029
1740240355365705500,11.90870556640625,-0.06215955689549446,-2.928046941757202,-0.05482517182826996
1740240355375726300,11.918726318359376,-0.04663865268230438,-3.0477194786071777,0.011833485215902328
1740240355385747500,11.92874755859375,0.0022459346801042557,-3.075899124145508,0.08110198378562927
1740240355395769300,11.938769287109375,0.09096861630678177,-2.984922170639038,0.13226264715194702
1740240355405790200,11.948790283203126,0.18735156953334808,-2.797701358795166,0.14368537068367004
1740240355415812600,11.9588125,0.3068239092826843,-2.645684242248535,0.10851379483938217
1740240355425833500,11.96883349609375,0.4113103449344635,-2.5736918449401855,0.0055320183746516705
1740240355435854300,11.978854248046876,0.48495715856552124,-2.4574527740478516,-0.09823965281248093
1740240355445876500,11.98887646484375,0.5641873478889465,-2.3454720973968506,-0.13737033307552338
1740240355455897300,11.9988974609375,0.6303415894508362,-2.205206871032715,-0.09997394680976868
1740240355465919500,12.00891943359375,0.6971426606178284,-1.9945412874221802,-0.01016587857156992
1740240355475940400,12.0189404296875,0.7618340253829956,-1.788486123085022,0.07992672920227051
1740240355485962500,12.02896240234375,0.8064241409301758,-1.6100918054580688,0.15135298669338226
1740240355495983400,12.0389833984375,0.8349886536598206,-1.4951785802841187,0.20313628017902374
1740240355506004200,12.049004150390624,0.8431685566902161,-1.4141052961349487,0.2198919802904129
1740240355516026600,12.059026611328125,0.8613590002059937,-1.3198953866958618,0.2081138789653778
1740240355526047500,12.069047607421876,0.8787311911582947,-1.187815546989441,0.15727382898330688
1740240355536069400,12.0790693359375,0.9094361066818237,-1.1341509819030762,0.1063603088259697
1740240355546090200,12.08909033203125,0.9542554020881653,-1.1128383874893188,0.05507640540599823
1740240355556112600,12.099112548828124,0.9838718771934509,-1.0472476482391357,0.01577054150402546
1740240355566133500,12.109133544921875,0.9966745376586914,-0.9036561250686646,0.013493379577994347
1740240355576154400,12.119154296875,1.015918493270874,-0.7173011898994446,0.02951309271156788
1740240355586176500,12.129176513671876,1.022579312324524,-0.5448741316795349,0.0524626150727272
1740240355596197400,12.139197265625,0.9995251893997192,-0.44859394431114197,0.07430986315011978
1740240355606219500,12.149219482421875,0.98255455493927,-0.40414756536483765,0.08235335350036621
1740240355616240400,12.159240478515626,0.986140251159668,-0.39252421259880066,0.056852519512176514
1740240355626261500,12.169261474609375,0.9980812072753906,-0.3622943162918091,0.003912922460585833
1740240355636283400,12.179283447265625,1.0085090398788452,-0.34580641984939575,-0.06735965609550476
1740240355646304300,12.18930419921875,0.990659773349762,-0.328959584236145,-0.13186301290988922
1740240355656326400,12.199326416015625,0.9644758105278015,-0.3075754642486572,-0.1829536259174347
1740240355666347500,12.209347412109375,0.965892493724823,-0.303844690322876,-0.21536782383918762
1740240355676369400,12.219369384765624,0.9899123311042786,-0.3034561276435852,-0.2353343367576599
1740240355686390300,12.229390380859375,1.0311964750289917,-0.27544474601745605,-0.23729458451271057
1740240355696411400,12.239411376953125,1.0887173414230347,-0.18319205939769745,-0.23574142158031464
1740240355706433300,12.249433349609374,1.164894938468933,-0.07326200604438782,-0.2301139533519745
1740240355716454400,12.259454345703125,1.222960114479065,-0.004033136647194624,-0.23693829774856567
1740240355726476500,12.2694765625,1.2435617446899414,-0.03482312709093094,-0.26435598731040955
1740240355736497400,12.279497314453126,1.2637503147125244,-0.11850923299789429,-0.30439767241477966
1740240355746519300,12.289519287109375,1.282141923904419,-0.16995741426944733,-0.31901922821998596
1740240355756540400,12.29954052734375,1.2763453722000122,-0.181019127368927,-0.2879350781440735
1740240355766561500,12.3095615234375,1.2298659086227417,-0.15998610854148865,-0.24123318493366241
1740240355776583400,12.31958349609375,1.1774240732192993,-0.08690871298313141,-0.1983882486820221
1740240355786604300,12.329604248046875,1.131016492843628,-0.016737790778279305,-0.15043622255325317
1740240355796626400,12.33962646484375,1.0869263410568237,0.020015962421894073,-0.10626210272312164
1740240355806647300,12.349647216796875,1.0807156562805176,0.04233447462320328,-0.07041393220424652
1740240355816668400,12.35966845703125,1.101603627204895,0.06919112056493759,-0.06205719709396362
1740240355826690600,12.369690673828124,1.139365792274475,0.107965849339962,-0.057972121983766556
1740240355836711400,12.37971142578125,1.1737773418426514,0.1528046876192093,-0.05641816556453705
1740240355846732500,12.389732666015625,1.2067956924438477,0.1827036589384079,-0.06435246765613556
1740240355856753700,12.399753662109376,1.2243163585662842,0.18448665738105774,-0.06884469091892242
1740240355866775800,12.40977587890625,1.2147046327590942,0.15898680686950684,-0.043807461857795715
1740240355876796700,12.419796630859375,1.2173004150390625,0.13429823517799377,-0.008589019998908043
1740240355886817800,12.42981787109375,1.2483211755752563,0.14163799583911896,0.011405568569898605
1740240355896839700,12.439839599609375,1.314772367477417,0.16069424152374268,0.011698516085743904
1740240355906860500,12.449860595703125,1.3942375183105469,0.14280779659748077,-0.010281777940690517
1740240355916882700,12.459882568359374,1.4599858522415161,0.1313048005104065,-0.05142442137002945
1740240355926903800,12.46990380859375,1.4949133396148682,0.1268775761127472,-0.07406150549650192
1740240355936925700,12.47992578125,1.488651156425476,0.13597573339939117,-0.06383071094751358
1740240355946946600,12.489946533203126,1.4648417234420776,0.14557179808616638,-0.03638762980699539
1740240355956967700,12.4999677734375,1.424096703529358,0.1861056387424469,-0.0003856841940432787
1740240355966989800,12.50998974609375,1.363143801689148,0.27034056186676025,0.04874516278505325
1740240355977010700,12.5200107421875,1.2981085777282715,0.36540740728378296,0.08479930460453033
1740240355987032600,12.530032470703125,1.2477567195892334,0.441422700881958,0.10123889148235321
