time,seconds_elapsed,z,y,x
1740240343434371300,0.020371337890625,0.12503589689731598,0.09024284034967422,-0.16277779638767242
1740240343444435500,0.030435546875,0.11464535444974899,0.1117931604385376,-0.0694672167301178
1740240343454498300,0.040498291015625,0.09222286939620972,0.09900759160518646,0.026440929621458054
1740240343464561200,0.05056103515625,0.07512196153402328,0.05541195347905159,0.1181594580411911
1740240343474625300,0.060625244140625,0.05950384959578514,0.010344876907765865,0.1732996702194214
1740240343484688400,0.0706884765625,0.047562021762132645,-0.01646113023161888,0.18924672901630402
1740240343494751200,0.080751220703125,0.036188192665576935,-0.021661484614014626,0.17262966930866241
1740240343504815400,0.0908154296875,0.033848512917757034,-0.005869801621884108,0.1404484510421753
1740240343514878200,0.100878173828125,0.024168984964489937,0.018374551087617874,0.09822750091552734
1740240343524941300,0.11094140625,0.01721738465130329,0.04353400692343712,0.06849895417690277
1740240343535005400,0.12100537109375,0.02467397041618824,0.06722602248191833,0.05860983952879906
1740240343545068300,0.131068359375,0.041425563395023346,0.06332104653120041,0.06256575882434845
1740240343555131100,0.141131103515625,0.05433150753378868,0.0408298559486866,0.0686074048280716
1740240343565195300,0.1511953125,0.046637214720249176,0.01972362771630287,0.07567393779754639
1740240343575258400,0.16125830078125,0.029133323580026627,0.008551133796572685,0.07416711747646332
1740240343585321200,0.1713212890625,0.010545849800109863,0.011534756049513817,0.06567328423261642
1740240343595384300,0.18138427734375,0.0077122473157942295,0.01894500106573105,0.04878538101911545
1740240343605448200,0.1914482421875,0.010749617591500282,0.034280795603990555,0.0379469133913517
1740240343615511300,0.20151123046875,0.01362050510942936,0.026535257697105408,0.01977403461933136
1740240343625574400,0.211574462890625,0.017171567305922508,0.021767953410744667,0.006197501439601183
1740240343635638300,0.22163818359375,0.023249434307217598,0.026712113991379738,-0.007080753333866596
1740240343645701400,0.231701416015625,0.0317850336432457,0.03211531415581703,0.0013562968233600259
1740240343655764200,0.24176416015625,0.04228374734520912,0.04347609356045723,0.013418019749224186
1740240343665828400,0.251828369140625,0.05055233836174011,0.049214448779821396,0.027740761637687683
1740240343675891500,0.261891357421875,0.06503220647573471,0.04588896036148071,0.0407300628721714
1740240343685954300,0.271954345703125,0.09023631364107132,0.04355490207672119,0.0411907397210598
1740240343696018200,0.28201806640625,0.10316090285778046,0.032570961862802505,0.043740447610616684
1740240343706081300,0.292081298828125,0.09858286380767822,0.025151578709483147,0.027326270937919617
1740240343716144400,0.302144287109375,0.09207623451948166,0.0028835595585405827,0.011825609020888805
1740240343726208300,0.312208251953125,0.09424212574958801,0.014054147526621819,0.00330690061673522
1740240343736271400,0.322271240234375,0.09916284680366516,0.011151300743222237,0.011018616147339344
1740240343746334200,0.332334228515625,0.10517552495002747,0.019496090710163116,0.04082876443862915
1740240343756398000,0.342398193359375,0.10787383466959,0.015878453850746155,0.07283703237771988
1740240343766461400,0.35246142578125,0.11821223050355911,0.03135676681995392,0.11219881474971771
1740240343776524300,0.362524169921875,0.11897522956132889,0.04873362556099892,0.13244496285915375
1740240343786588200,0.372588134765625,0.11259739100933075,0.05458397418260574,0.1393946409225464
1740240343796651300,0.3826513671875,0.10978002846240997,0.06664223968982697,0.13950330018997192
1740240343806714400,0.39271435546875,0.10634907335042953,0.07545167207717896,0.14141252636909485
1740240343816778200,0.4027783203125,0.1062321588397026,0.07154534757137299,0.1366446614265442
1740240343826840800,0.4128408203125,0.09730418026447296,0.07128757238388062,0.12464553117752075
1740240343836904000,0.422904052734375,0.085952989757061,0.08004137873649597,0.10307951271533966
1740240343846967800,0.4329677734375,0.07102718949317932,0.08652765303850174,0.08049473166465759
1740240343857031000,0.443031005859375,0.06086936593055725,0.09573473036289215,0.05732390284538269
1740240343867094000,0.453093994140625,0.061279602348804474,0.09385892748832703,0.034613367170095444
1740240343877158000,0.463157958984375,0.06531029939651489,0.08708863705396652,0.02670671045780182
1740240343887220700,0.473220703125,0.06434956938028336,0.08424714207649231,0.01738075539469719
1740240343897284000,0.4832841796875,0.06322305649518967,0.07480916380882263,0.01737462915480137
1740240343907348000,0.493347900390625,0.057937972247600555,0.0666487067937851,0.029852809384465218
1740240343917410800,0.503410888671875,0.0446072556078434,0.061488572508096695,0.04354465380311012
1740240343927474000,0.513473876953125,0.03034101612865925,0.07306617498397827,0.06052662059664726
1740240343937537800,0.523537841796875,0.011136162094771862,0.08535639196634293,0.08400238305330276
1740240343947601200,0.53360107421875,0.0004437924362719059,0.0900491327047348,0.11336181312799454
1740240343957664000,0.5436640625,-0.00320260738953948,0.09458715468645096,0.13680988550186157
1740240343967727900,0.553727783203125,-0.0024429187178611755,0.10066197067499161,0.14303572475910187
1740240343977791000,0.563791015625,0.007003846578299999,0.08670647442340851,0.13688914477825165
1740240343987854000,0.57385400390625,0.016029033809900284,0.08869612216949463,0.12092189490795135
1740240343997918000,0.58391796875,0.02803802490234375,0.0741741731762886,0.11872106045484543
1740240344007981000,0.59398095703125,0.027607182040810585,0.036165058612823486,0.10003557056188583
1740240344018044000,0.6040439453125,0.02589823119342327,0.002311223652213812,0.07265374809503555
1740240344028107800,0.614107666015625,0.020299315452575684,-0.056102145463228226,0.05699792876839638
1740240344038171100,0.624171142578125,0.014219853095710278,-0.09773321449756622,0.07711038738489151
1740240344048234000,0.63423388671875,0.00869681779295206,-0.10168500989675522,0.12754757702350616
1740240344058297900,0.6442978515625,0.02526780404150486,-0.10619134455919266,0.18646948039531708
1740240344068361000,0.65436083984375,0.04279317334294319,-0.10137801617383957,0.245777428150177
1740240344078424000,0.664424072265625,0.05239866301417351,-0.08065835386514664,0.2993117868900299
1740240344088488000,0.674488037109375,0.03923480957746506,-0.0502726249396801,0.3400753438472748
1740240344098551000,0.684551025390625,0.04773402214050293,-0.06666890531778336,0.4024079442024231
1740240344108614000,0.69461376953125,0.040981680154800415,-0.05343875288963318,0.46317580342292786
1740240344118677800,0.704677734375,0.020265750586986542,-0.06020398065447807,0.5143870711326599
1740240344128741000,0.7147412109375,-0.010279154404997826,-0.09930186718702316,0.5623865127563477
1740240344138804000,0.724803955078125,-0.05999158322811127,-0.133933886885643,0.6094520092010498
1740240344148867800,0.734867919921875,-0.13120169937610626,-0.13457825779914856,0.6343708038330078
1740240344158931000,0.744930908203125,-0.16365844011306763,-0.16117365658283234,0.65512615442276
1740240344168994000,0.754994140625,-0.20701289176940918,-0.09951939433813095,0.6501031517982483
1740240344179058200,0.76505810546875,-0.23194539546966553,-0.07231546938419342,0.6148865818977356
1740240344189121000,0.77512109375,-0.2434181272983551,-0.043498530983924866,0.5644277930259705
1740240344199184000,0.785183837890625,-0.25703728199005127,-0.023983415216207504,0.5193857550621033
1740240344209248000,0.795248046875,-0.2852027416229248,-0.019280951470136642,0.4969516396522522
1740240344219311000,0.80531103515625,-0.34595078229904175,-0.016814863309264183,0.5069987177848816
1740240344229374000,0.8153740234375,-0.41875138878822327,-0.018791379407048225,0.5493467450141907
1740240344239438000,0.82543798828125,-0.48183581233024597,-0.03652830049395561,0.6288860440254211
1740240344249501000,0.8355009765625,-0.5269030928611755,-0.07493798434734344,0.7160751223564148
1740240344259564000,0.84556396484375,-0.5557935833930969,-0.1300656795501709,0.7925339341163635
1740240344269628200,0.855628173828125,-0.5799160003662109,-0.19183236360549927,0.8369336128234863
1740240344279691000,0.86569091796875,-0.6036290526390076,-0.25265470147132874,0.8384172320365906
1740240344289753900,0.87575390625,-0.6139343976974487,-0.2812527120113373,0.8115284442901611
1740240344299818000,0.88581787109375,-0.6130712628364563,-0.29974305629730225,0.7569506764411926
1740240344309881000,0.895881103515625,-0.601665735244751,-0.32039642333984375,0.6953517198562622
1740240344319944000,0.90594384765625,-0.6048873662948608,-0.3771910071372986,0.6276730895042419
1740240344330008000,0.916008056640625,-0.6083223223686218,-0.46154505014419556,0.5660083889961243
1740240344340071000,0.92607080078125,-0.621458888053894,-0.547285795211792,0.5261853337287903
1740240344350134000,0.936134033203125,-0.6242749691009521,-0.6390801668167114,0.4974508285522461
1740240344360198100,0.9461982421875,-0.6223121881484985,-0.7295975685119629,0.47295081615448
1740240344370261000,0.956260986328125,-0.6384192705154419,-0.7967579364776611,0.45115530490875244
1740240344380323800,0.96632373046875,-0.672859787940979,-0.8590279221534729,0.4122678339481354
1740240344390388000,0.976387939453125,-0.7292423844337463,-0.918335497379303,0.3740607798099518
1740240344400451000,0.986451171875,-0.7606492638587952,-0.9442046284675598,0.3471444845199585
1740240344410514000,0.996513916015625,-0.7984343767166138,-0.9480805397033691,0.3426523506641388
1740240344420578000,1.006578125,-0.8034442663192749,-0.9381850361824036,0.34918829798698425
1740240344430641000,1.016640869140625,-0.8147504329681396,-0.9239645004272461,0.36525440216064453
1740240344440703700,1.026703857421875,-0.8109820485115051,-0.9263291358947754,0.3727370798587799
1740240344450768000,1.036767822265625,-0.7954169511795044,-0.9465429782867432,0.3704238533973694
1740240344460831000,1.0468310546875,-0.7732357382774353,-0.9457099437713623,0.3527633845806122
1740240344470893800,1.056893798828125,-0.7579776048660278,-0.9259068965911865,0.3029862940311432
1740240344480958000,1.0669580078125,-0.7728753685951233,-0.9005192518234253,0.2242557853460312
1740240344491020800,1.077020751953125,-0.8009929656982422,-0.8632575869560242,0.13120418787002563
1740240344501084000,1.087083984375,-0.826404869556427,-0.8256721496582031,0.044038936495780945
1740240344511148000,1.09714794921875,-0.849806010723114,-0.7984748482704163,-0.038578927516937256
1740240344521211000,1.1072109375,-0.8580439686775208,-0.7973283529281616,-0.09348291903734207
1740240344531274000,1.11727392578125,-0.8478270769119263,-0.8183972239494324,-0.12152685970067978
1740240344541337900,1.127337890625,-0.8309016227722168,-0.8459111452102661,-0.12600629031658173
1740240344551401000,1.13740087890625,-0.8078740239143372,-0.8679788708686829,-0.10900121182203293
1740240344561464000,1.147464111328125,-0.793674886226654,-0.8941801190376282,-0.0890972763299942
1740240344571528000,1.15752783203125,-0.770794153213501,-0.8963149785995483,-0.06236644089221954
1740240344581590800,1.1675908203125,-0.7584989070892334,-0.8672854900360107,-0.05134068801999092
1740240344591654100,1.177654052734375,-0.7471356987953186,-0.8308401703834534,-0.07243505120277405
1740240344601718000,1.187718017578125,-0.7366977334022522,-0.7882588505744934,-0.1263645887374878
1740240344611780900,1.19778076171875,-0.720018744468689,-0.7482113838195801,-0.20059232413768768
1740240344621844000,1.207843994140625,-0.7058640122413635,-0.7172995209693909,-0.2775188088417053
1740240344631907800,1.217907958984375,-0.6789444088935852,-0.6678085327148438,-0.356792688369751
1740240344641971000,1.227970947265625,-0.6517564654350281,-0.6288840174674988,-0.4308927357196808
1740240344652034000,1.238033935546875,-0.6345488429069519,-0.6109154224395752,-0.5195208191871643
1740240344662098000,1.248097900390625,-0.6153061985969543,-0.6177861094474792,-0.6005930304527283
1740240344672160800,1.258160888671875,-0.5847384333610535,-0.6176060438156128,-0.6577056050300598
1740240344682224000,1.26822412109375,-0.5354499816894531,-0.6148640513420105,-0.6598132252693176
1740240344692288000,1.2782880859375,-0.47928130626678467,-0.6031544208526611,-0.6010434627532959
1740240344702350800,1.288350830078125,-0.43588775396347046,-0.6152827739715576,-0.4940655827522278
1740240344712414000,1.2984140625,-0.4053090214729309,-0.6646507978439331,-0.35953301191329956
1740240344722477800,1.308477783203125,-0.3932696580886841,-0.6837499141693115,-0.22979900240898132
1740240344732541000,1.318541015625,-0.3771624267101288,-0.7264620661735535,-0.14993804693222046
1740240344742604000,1.32860400390625,-0.35870617628097534,-0.7928767800331116,-0.1487385630607605
1740240344752668000,1.33866796875,-0.3378697633743286,-0.7912563681602478,-0.2372525930404663
1740240344762731000,1.34873095703125,-0.3036670386791229,-0.7398597598075867,-0.407441645860672
1740240344772794000,1.358794189453125,-0.23851926624774933,-0.6574298739433289,-0.601441502571106
1740240344782857000,1.36885693359375,-0.150881826877594,-0.5380659699440002,-0.7844515442848206
1740240344792921000,1.378921142578125,-0.05145497992634773,-0.4617585241794586,-0.9148427248001099
1740240344802984000,1.38898388671875,0.030055589973926544,-0.4544611871242523,-0.9961080551147461
1740240344813047000,1.399047119140625,0.07765580713748932,-0.5582600831985474,-1.0536017417907715
1740240344823111200,1.409111083984375,0.11730921268463135,-0.8426846265792847,-1.0942679643630981
1740240344833173800,1.419173828125,0.20598769187927246,-1.177581548690796,-1.0652611255645752
1740240344843236600,1.429236572265625,0.3343096971511841,-1.397120714187622,-0.987427294254303
1740240344853300500,1.439300537109375,0.4881703555583954,-1.4079536199569702,-0.969495415687561
1740240344863363800,1.44936376953125,0.6449069976806641,-1.212712287902832,-1.0453845262527466
1740240344873426700,1.4594267578125,0.7827891111373901,-0.9482131004333496,-1.2203978300094604
1740240344883490600,1.469490478515625,0.9143710732460022,-0.7178195714950562,-1.4583184719085693
1740240344893553700,1.4795537109375,1.0268234014511108,-0.470694363117218,-1.6689598560333252
1740240344903616800,1.48961669921875,1.1315630674362183,-0.30568864941596985,-1.8095009326934814
1740240344913680600,1.4996806640625,1.1856558322906494,-0.20520667731761932,-1.8462649583816528
1740240344923743700,1.50974365234375,1.208019733428955,-0.19406801462173462,-1.8002593517303467
1740240344933806600,1.519806640625,1.2358012199401855,-0.20186550915241241,-1.6854188442230225
1740240344943870700,1.52987060546875,1.2518302202224731,-0.20353585481643677,-1.5482285022735596
1740240344953933800,1.539933837890625,1.2724181413650513,-0.19449855387210846,-1.4262657165527344
1740240344963996700,1.54999658203125,1.3058277368545532,-0.1306396722793579,-1.297902226448059
1740240344974060800,1.560060791015625,1.3048175573349,0.03708270192146301,-1.1546337604522705
1740240344984123600,1.57012353515625,1.2941875457763672,0.18711693584918976,-1.0579322576522827
1740240344994186800,1.580186767578125,1.3191601037979126,0.33911755681037903,-1.010351300239563
1740240345004251000,1.5902509765625,1.3989652395248413,0.5311954021453857,-0.983909010887146
1740240345014313700,1.600313720703125,1.505292296409607,0.717429518699646,-0.9601231217384338
1740240345024376600,1.61037646484375,1.5724679231643677,0.9312286376953125,-0.8720667362213135
1740240345034440700,1.620440673828125,1.5980634689331055,1.131753921508789,-0.7097810506820679
1740240345044503800,1.63050390625,1.584925889968872,1.2639909982681274,-0.5021596550941467
1740240345054566700,1.640566650390625,1.5215933322906494,1.3073173761367798,-0.29248666763305664
1740240345064630800,1.650630859375,1.457888126373291,1.3240222930908203,-0.10603982955217361
1740240345074693600,1.660693603515625,1.415993571281433,1.340766429901123,0.07714948803186417
1740240345084756700,1.6707568359375,1.3819807767868042,1.3391395807266235,0.24861924350261688
1740240345094820900,1.68082080078125,1.342479944229126,1.3259971141815186,0.41197139024734497
1740240345104883700,1.6908837890625,1.2972874641418457,1.3113430738449097,0.5480086207389832
1740240345114946600,1.700946533203125,1.2553701400756836,1.2980773448944092,0.6444148421287537
1740240345125010700,1.7110107421875,1.2330647706985474,1.3558205366134644,0.709463357925415
1740240345135073500,1.721073486328125,1.2154524326324463,1.4319300651550293,0.7281306982040405
1740240345145136600,1.73113671875,1.2004412412643433,1.492583990097046,0.7157054543495178
1740240345155200800,1.74120068359375,1.1720874309539795,1.5199122428894043,0.7057850956916809
1740240345165263600,1.751263671875,1.1278504133224487,1.4897594451904297,0.7401148676872253
1740240345175326500,1.761326416015625,1.0419729948043823,1.3935768604278564,0.8068864345550537
1740240345185390600,1.771390625,0.9442623853683472,1.2786369323730469,0.8636458516120911
1740240345195453700,1.78145361328125,0.8678441643714905,1.1950089931488037,0.9152061343193054
1740240345205516500,1.7915166015625,0.8148728609085083,1.1064724922180176,0.9673050045967102
1740240345215580700,1.80158056640625,0.7756261229515076,1.0473018884658813,1.0536713600158691
1740240345225643500,1.8116435546875,0.7546297907829285,1.0334372520446777,1.1598353385925293
1740240345235706600,1.82170654296875,0.7536835670471191,0.9964610934257507,1.2749181985855103
1740240345245770800,1.831770751953125,0.7765382528305054,0.9409206509590149,1.3559768199920654
1740240345255833600,1.84183349609375,0.7662742137908936,0.8857409954071045,1.4201303720474243
1740240345265896400,1.851896484375,0.750554621219635,0.7762424349784851,1.4540529251098633
1740240345275959800,1.861959716796875,0.7475988268852234,0.692330539226532,1.483303427696228
1740240345286023700,1.872023681640625,0.7171857953071594,0.6147145628929138,1.501969575881958
1740240345296086800,1.882086669921875,0.6694632768630981,0.5654181241989136,1.501530408859253
1740240345306149600,1.892149658203125,0.6032980680465698,0.5326801538467407,1.4641233682632446
1740240345316213500,1.902213623046875,0.5156289935112,0.532490074634552,1.3793150186538696
1740240345326276900,1.91227685546875,0.4358140528202057,0.5240398645401001,1.2581976652145386
1740240345336339700,1.922339599609375,0.3898448944091797,0.44676604866981506,1.1567168235778809
1740240345346403600,1.932403564453125,0.3952220678329468,0.3625803291797638,1.161341905593872
1740240345356466700,1.942466796875,0.4149327874183655,0.3106655478477478,1.3046369552612305
1740240345366529800,1.95252978515625,0.440037339925766,0.240077406167984,1.5048041343688965
1740240345376593700,1.96259375,0.42419126629829407,0.19792833924293518,1.658271312713623
1740240345386656800,1.97265673828125,0.3967423439025879,0.19004644453525543,1.7111990451812744
1740240345396719600,1.9827197265625,0.3647801876068115,0.23821964859962463,1.6711962223052979
1740240345406783500,1.992783447265625,0.3205930292606354,0.2497340887784958,1.5377711057662964
1740240345416846800,2.002846923828125,0.26229092478752136,0.19974958896636963,1.3572688102722168
1740240345426909700,2.01290966796875,0.20624499022960663,0.1221005991101265,1.1790850162506104
1740240345436973600,2.0229736328125,0.16158919036388397,0.05177159607410431,1.027354121208191
1740240345447036700,2.03303662109375,0.128450408577919,-0.011023873463273048,0.9007639288902283
1740240345457099800,2.043099853515625,0.11198616772890091,0.02513224259018898,0.7845033407211304
1740240345467163600,2.05316357421875,0.1203322485089302,0.09623891115188599,0.6686795353889465
1740240345477226800,2.063226806640625,0.1376848667860031,0.08200937509536743,0.5468748211860657
1740240345487289600,2.07328955078125,0.13715916872024536,0.05011802166700363,0.42361119389533997
1740240345497353500,2.083353515625,0.12223247438669205,0.07201939076185226,0.3404812216758728
1740240345507416800,2.093416748046875,0.11104719340801239,0.1779697835445404,0.3032033443450928
1740240345517479700,2.103479736328125,0.10617195069789886,0.19806377589702606,0.32555708289146423
1740240345527542500,2.11354248046875,0.07571443915367126,0.2011042982339859,0.41306403279304504
1740240345537606700,2.123606689453125,0.08563046157360077,0.1880871057510376,0.5235694646835327
1740240345547669800,2.133669677734375,0.12892122566699982,0.13491496443748474,0.6105818748474121
1740240345557732600,2.143732666015625,0.15519841015338898,0.1226482167840004,0.63471519947052
1740240345567796700,2.153796630859375,0.14252176880836487,0.016418708488345146,0.6001308560371399
1740240345577859600,2.163859619140625,0.06636585295200348,-0.07835695147514343,0.48601773381233215
1740240345587922700,2.173922607421875,0.10577531158924103,-0.34391483664512634,0.28433841466903687
1740240345597986800,2.18398681640625,0.1687489002943039,-0.4313808083534241,0.026523597538471222
1740240345608049700,2.194049560546875,0.20579399168491364,-0.4537220597267151,-0.19985494017601013
1740240345618112500,2.204112548828125,0.2117781639099121,-0.4812501072883606,-0.36652058362960815
1740240345628176600,2.2141767578125,0.21589753031730652,-0.47203266620635986,-0.43970584869384766
1740240345638239700,2.22423974609375,0.24247285723686218,-0.3824154734611511,-0.38196274638175964
1740240345648302600,2.234302490234375,0.2549947500228882,-0.30615267157554626,-0.25112882256507874
1740240345658366700,2.24436669921875,0.23771442472934723,-0.2880561649799347,-0.09216304123401642
1740240345668429600,2.2544296875,0.17673443257808685,-0.273769348859787,0.06428169459104538
1740240345678492700,2.26449267578125,0.13182084262371063,-0.3287326395511627,0.2649190425872803
1740240345688556500,2.274556640625,0.021853074431419373,-0.12730152904987335,0.3790259063243866
1740240345698619600,2.28461962890625,-0.15711113810539246,0.12236017733812332,0.43130794167518616
1740240345708682800,2.294682861328125,-0.3556026816368103,0.3565250337123871,0.3607344627380371
1740240345718745600,2.30474560546875,-0.4141666293144226,0.3598664700984955,0.19219842553138733
1740240345728809500,2.3148095703125,-0.3665359914302826,0.26284992694854736,0.05250924080610275
1740240345738872800,2.324872802734375,-0.3035728931427002,0.11800121515989304,-0.023266900330781937
1740240345748935700,2.334935791015625,-0.2334263026714325,0.0019348012283444405,-0.03664209321141243
1740240345758999600,2.34499951171875,-0.172531858086586,-0.005480831488966942,-0.027714695781469345
1740240345769062700,2.355062744140625,-0.13800211250782013,-0.00404325732961297,-0.05937755107879639
1740240345779125800,2.365125732421875,-0.13396823406219482,-0.03951924666762352,-0.14132221043109894
1740240345789189600,2.375189697265625,-0.13778454065322876,-0.13242416083812714,-0.2332601249217987
1740240345799252700,2.385252685546875,-0.11488023400306702,-0.22719056904315948,-0.3274105191230774
1740240345809315600,2.395315673828125,-0.07097882032394409,-0.3153207004070282,-0.4068097472190857
1740240345819379500,2.40537939453125,-0.040168602019548416,-0.3548714518547058,-0.4449048340320587
1740240345829442800,2.41544287109375,-0.0036675846204161644,-0.37467631697654724,-0.44788679480552673
1740240345839506000,2.425505859375,0.02526325359940529,-0.3864135146141052,-0.3864515423774719
1740240345849569800,2.43556982421875,-0.003989174962043762,-0.4096469283103943,-0.28361785411834717
1740240345859632600,2.445632568359375,-0.12447134405374527,-0.3703485429286957,-0.1686381995677948
1740240345869696000,2.455696044921875,-0.30569013953208923,-0.3705024719238281,-0.07220114767551422
1740240345879758800,2.4657587890625,-0.524273157119751,-0.38384148478507996,-0.017655199393630028
1740240345889822700,2.47582275390625,-0.6867736577987671,-0.46312859654426575,-0.00801508966833353
1740240345899885800,2.4858857421875,-0.7987407445907593,-0.5216366648674011,0.03377704322338104
1740240345909949000,2.495948974609375,-0.8960766196250916,-0.5781281590461731,0.11462954431772232
1740240345920013000,2.506012939453125,-0.9788562655448914,-0.6049729585647583,0.1819291114807129
1740240345930076000,2.516075927734375,-1.056511640548706,-0.6808211207389832,0.20172545313835144
1740240345940138800,2.526138671875,-1.1112687587738037,-0.7172322273254395,0.20332644879817963
1740240345950203000,2.536202880859375,-1.205968976020813,-0.7500690221786499,0.13860711455345154
1740240345960266000,2.546265869140625,-1.2897610664367676,-0.7676442265510559,0.030974771827459335
1740240345970328800,2.556328857421875,-1.3743516206741333,-0.7873222827911377,-0.04480334743857384
1740240345980393000,2.56639306640625,-1.4234122037887573,-0.8671311140060425,-0.026916291564702988
1740240345990455800,2.576455810546875,-1.4542324542999268,-0.9084510803222656,0.11194092780351639
1740240346000519000,2.586518798828125,-1.4748404026031494,-0.948731005191803,0.26441290974617004
1740240346010583000,2.5965830078125,-1.4547069072723389,-0.9424344897270203,0.3825424909591675
1740240346020646000,2.60664599609375,-1.450786828994751,-0.9442233443260193,0.43688035011291504
1740240346030708700,2.616708740234375,-1.4268088340759277,-0.9553952813148499,0.4334701895713806
1740240346040772900,2.62677294921875,-1.477434754371643,-0.8845961689949036,0.3540491759777069
1740240346050836000,2.6368359375,-1.4732247591018677,-0.870213508605957,0.30993950366973877
1740240346060898800,2.64689892578125,-1.4314030408859253,-0.8882617354393005,0.31944751739501953
1740240346070962000,2.6569619140625,-1.3903368711471558,-0.9176132082939148,0.3975295424461365
1740240346081025800,2.66702587890625,-1.3621958494186401,-0.9688464403152466,0.5069286227226257
1740240346091089000,2.6770888671875,-1.3104788064956665,-1.0641987323760986,0.6059156656265259
1740240346101152000,2.687152099609375,-1.2570815086364746,-1.1699542999267578,0.6843874454498291
1740240346111215900,2.6972158203125,-1.2072244882583618,-1.2684361934661865,0.7423612475395203
1740240346121278700,2.70727880859375,-1.1544560194015503,-1.3521406650543213,0.7748849987983704
1740240346131341800,2.717341796875,-1.1313508749008179,-1.4101823568344116,0.7789380550384521
1740240346141405700,2.72740576171875,-1.1351604461669922,-1.4374922513961792,0.8171648979187012
1740240346151468800,2.73746875,-1.1207157373428345,-1.4237871170043945,0.8672598004341125
1740240346161532000,2.747531982421875,-1.0849968194961548,-1.404158115386963,0.9200305342674255
1740240346171595800,2.757595703125,-1.0183144807815552,-1.372844934463501,0.9970792531967163
1740240346181658600,2.76765869140625,-0.9330809712409973,-1.3424626588821411,1.0619252920150757
1740240346191722000,2.777721923828125,-0.8762847781181335,-1.2594692707061768,1.092079758644104
1740240346201785900,2.787785888671875,-0.8310074806213379,-1.1324491500854492,1.0937623977661133
1740240346211848700,2.7978486328125,-0.8069308996200562,-0.9909313917160034,1.0695022344589233
1740240346221911800,2.807911865234375,-0.794958770275116,-0.8334907293319702,1.0085859298706055
1740240346231975000,2.817974853515625,-0.7672650814056396,-0.7117757797241211,0.9145935773849487
1740240346242038800,2.828038818359375,-0.7120006680488586,-0.62672358751297,0.839818000793457
1740240346252102000,2.838101806640625,-0.6405019760131836,-0.5714244246482849,0.8287709355354309
1740240346262164700,2.848164794921875,-0.5617120265960693,-0.5206501483917236,0.8731297254562378
1740240346272228900,2.858228759765625,-0.4482153356075287,-0.4662269055843353,0.9669981598854065
1740240346282292000,2.8682919921875,-0.3509357273578644,-0.4402768313884735,1.0635781288146973
1740240346292354800,2.878354736328125,-0.28692078590393066,-0.4211966395378113,1.1350096464157104
1740240346302419000,2.8884189453125,-0.24076098203659058,-0.4111216068267822,1.201564073562622
1740240346312481800,2.898481689453125,-0.12348975241184235,-0.31776127219200134,1.2915695905685425
1740240346322545000,2.908544921875,0.03303232416510582,-0.23241989314556122,1.3334864377975464
1740240346332609000,2.918609130859375,0.19783644378185272,-0.13524247705936432,1.3606599569320679
1740240346342672000,2.928671875,0.35544025897979736,0.013430153951048851,1.3854950666427612
1740240346352734700,2.938734619140625,0.42885056138038635,0.09032147377729416,1.4052985906600952
1740240346362797800,2.9487978515625,0.442803293466568,0.14877350628376007,1.4102424383163452
1740240346372862000,2.958862060546875,0.43735286593437195,0.19183388352394104,1.3929744958877563
1740240346382924800,2.9689248046875,0.5385246872901917,0.38774818181991577,1.4409222602844238
1740240346392987600,2.978987548828125,0.7179274559020996,0.5092868804931641,1.4624017477035522
1740240346403051800,2.9890517578125,0.8583393692970276,0.5486215949058533,1.4460264444351196
1740240346413115000,2.999114990234375,0.964644730091095,0.6731054782867432,1.4305342435836792
1740240346423177700,3.009177734375,1.0819112062454224,0.8258687853813171,1.3862477540969849
1740240346433241900,3.019241943359375,1.2021974325180054,0.945573091506958,1.3060117959976196
1740240346443304700,3.0293046875,1.319732666015625,0.9815199971199036,1.2092814445495605
1740240346453368000,3.0393681640625,1.3852810859680176,1.0676679611206055,1.1321120262145996
1740240346463431000,3.049430908203125,1.4428106546401978,1.1472135782241821,1.041885495185852
1740240346473494800,3.059494873046875,1.5220307111740112,1.2038168907165527,0.926826536655426
1740240346483558000,3.069557861328125,1.5462217330932617,1.1961778402328491,0.8025241494178772
1740240346493621000,3.07962109375,1.5044848918914795,1.0916516780853271,0.7126957774162292
1740240346503684900,3.089684814453125,1.436876654624939,0.9446272253990173,0.6946401596069336
1740240346513748000,3.099748046875,1.3730987310409546,0.8330519795417786,0.7412558794021606
1740240346523810800,3.109810791015625,1.3531078100204468,0.7756372094154358,0.838691234588623
1740240346533874700,3.119874755859375,1.3703440427780151,0.8384577035903931,0.9497828483581543
1740240346543938000,3.12993798828125,1.4264451265335083,1.00590980052948,1.0076769590377808
1740240346554001000,3.1400009765625,1.5153872966766357,1.1885405778884888,1.0025986433029175
1740240346564064800,3.150064697265625,1.6019684076309204,1.3012479543685913,0.9607298374176025
1740240346574127900,3.1601279296875,1.6320099830627441,1.3161184787750244,0.9075505137443542
1740240346584190700,3.170190673828125,1.607029914855957,1.243973970413208,0.876354992389679
1740240346594253800,3.18025390625,1.570704698562622,1.1149965524673462,0.8792173862457275
1740240346604318000,3.19031787109375,1.5335917472839355,1.0373618602752686,0.9413067102432251
1740240346614380800,3.200380859375,1.5417304039001465,1.048307180404663,1.0226569175720215
1740240346624443600,3.210443603515625,1.6034164428710938,1.0853010416030884,1.0704959630966187
1740240346634507800,3.2205078125,1.7210525274276733,1.1614272594451904,1.1027483940124512
1740240346644571000,3.23057080078125,1.852721095085144,1.1990803480148315,1.135985016822815
1740240346654633700,3.2406337890625,1.9504753351211548,1.1755015850067139,1.1790155172348022
1740240346664697900,3.25069775390625,2.0317201614379883,1.1639689207077026,1.2297883033752441
1740240346674760700,3.2607607421875,2.110755681991577,1.1595882177352905,1.27397620677948
1740240346684823800,3.27082373046875,2.193108558654785,1.1513862609863281,1.2954226732254028
1740240346694888000,3.280887939453125,2.2188689708709717,1.1561330556869507,1.3247885704040527
1740240346704950800,3.29095068359375,2.1986358165740967,1.150612235069275,1.3431556224822998
1740240346715013600,3.301013671875,2.1471505165100098,1.1330803632736206,1.314292550086975
1740240346725077000,3.311076904296875,2.1410810947418213,1.136642575263977,1.292157530784607
1740240346735140900,3.321140869140625,2.1448307037353516,1.1160955429077148,1.2480275630950928
1740240346745203700,3.33120361328125,2.135347366333008,1.094470500946045,1.2466812133789062
1740240346755266800,3.341266845703125,2.1889286041259766,1.1255476474761963,1.274635910987854
1740240346765330700,3.35133056640625,2.248836040496826,1.1612780094146729,1.2585500478744507
1740240346775393800,3.361393798828125,2.312563896179199,1.2221872806549072,1.2221680879592896
1740240346785457000,3.371456787109375,2.3799939155578613,1.302862286567688,1.1788297891616821
1740240346795519700,3.381519775390625,2.379635810852051,1.3607919216156006,1.121928095817566
1740240346805584000,3.391583984375,2.2975010871887207,1.4343293905258179,1.0886698961257935
1740240346815647000,3.40164697265625,2.103973865509033,1.508668303489685,1.0836108922958374
1740240346825709800,3.411709716796875,1.8800997734069824,1.4885507822036743,1.0508849620819092
1740240346835775200,3.421775146484375,1.7370622158050537,1.405194878578186,1.0372200012207031
1740240346845838000,3.431838134765625,1.662352442741394,1.2804795503616333,1.022981882095337
1740240346855901200,3.441901123046875,1.6672662496566772,1.1920394897460938,1.0305540561676025
1740240346865965000,3.451965087890625,1.6956065893173218,1.2039670944213867,1.056719422340393
1740240346876028200,3.462028076171875,1.7178897857666016,1.2672752141952515,1.0753666162490845
1740240346886091300,3.47209130859375,1.7420698404312134,1.381603717803955,1.0910309553146362
1740240346896155100,3.482155029296875,1.7501683235168457,1.4717373847961426,1.0943183898925781
1740240346906218000,3.492218017578125,1.75754714012146,1.5673329830169678,1.0770916938781738
1740240346916281300,3.50228125,1.6736551523208618,1.6020560264587402,1.0462589263916016
1740240346926344200,3.51234423828125,1.5881363153457642,1.570542335510254,1.028875708580017
1740240346936408300,3.522408203125,1.5061231851577759,1.4733302593231201,0.9999693036079407
1740240346946471200,3.53247119140625,1.4393134117126465,1.391611099243164,0.9789909720420837
1740240346956534300,3.5425341796875,1.3854808807373047,1.3288507461547852,0.954384446144104
1740240346966598400,3.552598388671875,1.347421407699585,1.2513954639434814,0.933596670627594
1740240346976661200,3.5626611328125,1.3360004425048828,1.20187509059906,0.9224447011947632
1740240346986724000,3.57272412109375,1.3470487594604492,1.1754934787750244,0.9438138604164124
1740240346996788200,3.582788330078125,1.3637803792953491,1.1769683361053467,0.9758740663528442
1740240347006851000,3.59285107421875,1.3506057262420654,1.2037992477416992,1.0230820178985596
1740240347016914200,3.6029140625,1.3234281539916992,1.2476073503494263,1.031936526298523
1740240347026977000,3.61297705078125,1.305473804473877,1.285291314125061,1.0331566333770752
1740240347037041200,3.623041259765625,1.3128124475479126,1.3070234060287476,1.0436255931854248
1740240347047104000,3.63310400390625,1.327932596206665,1.3055684566497803,1.0478579998016357
1740240347057167000,3.6431669921875,1.3319934606552124,1.310523509979248,1.007887363433838
1740240347067231200,3.653231201171875,1.3161559104919434,1.2976710796356201,0.9641028642654419
1740240347077294000,3.663294189453125,1.278444528579712,1.262709617614746,0.9176791310310364
1740240347087357200,3.673357177734375,1.2587100267410278,1.2332391738891602,0.9021331667900085
1740240347097421000,3.683421142578125,1.250701665878296,1.200065016746521,0.8732466697692871
1740240347107484200,3.693484130859375,1.2487494945526123,1.1780571937561035,0.8992161154747009
1740240347117547300,3.70354736328125,1.236301064491272,1.1542314291000366,0.9440818428993225
1740240347127610000,3.713610107421875,1.2241241931915283,1.1398305892944336,0.9770556688308716
1740240347137674000,3.723674072265625,1.201453447341919,1.144735336303711,0.9837353825569153
1740240347147737300,3.7337373046875,1.181876540184021,1.1638073921203613,0.9689487218856812
1740240347157800200,3.74380029296875,1.1778631210327148,1.1769304275512695,0.9524914622306824
1740240347167864000,3.753864013671875,1.170623540878296,1.1653094291687012,0.9472771286964417
1740240347177927200,3.76392724609375,1.157103180885315,1.1647621393203735,0.946577787399292
1740240347187990300,3.773990234375,1.1392449140548706,1.1756540536880493,0.9462394118309021
1740240347198053000,3.78405322265625,1.1259219646453857,1.1829832792282104,0.9334538578987122
1740240347208117200,3.7941171875,1.1186950206756592,1.1667391061782837,0.8996981382369995
1740240347218180000,3.80418017578125,1.1184684038162231,1.1088351011276245,0.8536208868026733
1740240347228243200,3.8142431640625,1.1297093629837036,1.0394395589828491,0.822544515132904
1740240347238307300,3.824307373046875,1.1380847692489624,0.9450046420097351,0.8072555661201477
1740240347248370200,3.8343701171875,1.133995532989502,0.869821310043335,0.8118292689323425
1740240347258433000,3.84443310546875,1.1050599813461304,0.8068601489067078,0.8055439591407776
1740240347268497200,3.8544970703125,1.0491400957107544,0.7603134512901306,0.7851541042327881
1740240347278560300,3.864560302734375,0.9611817002296448,0.72606360912323,0.7634836435317993
1740240347288623000,3.874623046875,0.8475274443626404,0.7081564664840698,0.7370026707649231
1740240347298686200,3.884686279296875,0.7188240885734558,0.6917985081672668,0.7263785004615784
1740240347308750000,3.89475,0.5979454517364502,0.66822350025177,0.7030045390129089
1740240347318813200,3.904813232421875,0.5094629526138306,0.7025092840194702,0.6753031015396118
1740240347328876300,3.914876220703125,0.43786558508872986,0.7626244425773621,0.6400688290596008
1740240347338940200,3.924940185546875,0.37293294072151184,0.8263134360313416,0.6071047782897949
1740240347349003000,3.9350029296875,0.301026850938797,0.8927760720252991,0.599448561668396
1740240347359066400,3.94506640625,0.21819640696048737,0.9371475577354431,0.5913245677947998
1740240347369130200,3.955130126953125,0.1120954304933548,0.9705930352210999,0.5605366826057434
1740240347379193000,3.965193115234375,0.013355810195207596,1.0248291492462158,0.5182092189788818
1740240347389256200,3.975256103515625,-0.07115098088979721,1.0198973417282104,0.4748099446296692
1740240347399320000,3.985320068359375,-0.1333690881729126,1.0267291069030762,0.47586482763290405
1740240347409383200,3.995383056640625,-0.18278563022613525,0.9961613416671753,0.5122401714324951
1740240347419446300,4.0054462890625,-0.22127710282802582,0.9424431920051575,0.5424590110778809
1740240347429510100,4.01551025390625,-0.2451082319021225,0.8860762715339661,0.552192747592926
1740240347439573200,4.0255732421875,-0.2697254419326782,0.8137418627738953,0.5297257900238037
1740240347449636000,4.035635986328125,-0.30330780148506165,0.7324327230453491,0.47307088971138
1740240347459700200,4.0457001953125,-0.35618966817855835,0.6588658094406128,0.39886510372161865
1740240347469763300,4.055763427734375,-0.42017921805381775,0.6179370880126953,0.31781211495399475
1740240347479826200,4.065826171875,-0.508425772190094,0.6044729948043823,0.26000556349754333
1740240347489889000,4.075888916015625,-0.6458585262298584,0.6011686325073242,0.23407424986362457
1740240347499953200,4.085953125,-0.8099161982536316,0.6052533984184265,0.1997796595096588
1740240347510016300,4.096016357421875,-0.974699854850769,0.60580974817276,0.15216359496116638
1740240347520079000,4.1060791015625,-1.180030107498169,0.5853214859962463,0.1337433010339737
1740240347530143200,4.116143310546875,-1.4413197040557861,0.5494856834411621,0.15545280277729034
1740240347540206000,4.1262060546875,-1.6763184070587158,0.5153493285179138,0.20966890454292297
1740240347550269200,4.136269287109375,-1.8392752408981323,0.501343309879303,0.24153567850589752
1740240347560333300,4.146333251953125,-1.9249368906021118,0.5472646951675415,0.22500410676002502
1740240347570396200,4.156396240234375,-1.9343748092651367,0.685036838054657,0.16955405473709106
1740240347580459000,4.166458984375,-1.9532920122146606,0.8259074091911316,0.056001126766204834
1740240347590522400,4.1765224609375,-2.0391221046447754,0.9722415804862976,-0.07685144245624542
1740240347600586200,4.186586181640625,-2.18875789642334,1.1549054384231567,-0.1803882122039795
1740240347610649000,4.196649169921875,-2.3384180068969727,1.3715182542800903,-0.24988315999507904
1740240347620712200,4.206712158203125,-2.506406784057617,1.5714329481124878,-0.3138490915298462
1740240347630776000,4.216776123046875,-2.729238271713257,1.6952461004257202,-0.3976491391658783
1740240347640839200,4.226839111328125,-2.9825453758239746,1.7397857904434204,-0.49747002124786377
1740240347650902300,4.23690234375,-3.2350356578826904,1.8012666702270508,-0.6021963953971863
1740240347660965000,4.246965087890625,-3.3588521480560303,1.9430488348007202,-0.6575115323066711
1740240347671029000,4.257029052734375,-3.3167307376861572,2.052492380142212,-0.6844194531440735
1740240347681092400,4.26709228515625,-3.228365898132324,2.067654609680176,-0.6990319490432739
1740240347691155200,4.2771552734375,-3.2117176055908203,1.962957739830017,-0.7326627373695374
1740240347701219000,4.287218994140625,-3.267963409423828,1.7917826175689697,-0.7729566693305969
1740240347711282200,4.2972822265625,-3.38879656791687,1.601858377456665,-0.8000495433807373
1740240347721345300,4.30734521484375,-3.5045623779296875,1.4915249347686768,-0.7624286413192749
1740240347731409200,4.3174091796875,-3.5708494186401367,1.4109079837799072,-0.6724368333816528
1740240347741472300,4.32747216796875,-3.576835870742798,1.29189133644104,-0.5648443102836609
1740240347751535000,4.33753515625,-3.550204277038574,1.197896122932434,-0.44151240587234497
1740240347761598200,4.34759814453125,-3.466158866882324,1.1045218706130981,-0.3029366731643677
1740240347771662300,4.357662353515625,-3.3150222301483154,0.9983342289924622,-0.197951078414917
1740240347781725200,4.36772509765625,-3.1231117248535156,0.8913046717643738,-0.13464801013469696
1740240347791788000,4.3777880859375,-2.9667532444000244,0.8127426505088806,-0.09053363651037216
1740240347801852200,4.38785205078125,-2.927338123321533,0.7537387013435364,-0.04106834903359413
1740240347811915300,4.397915283203125,-2.998201608657837,0.683331310749054,0.013502967543900013
1740240347821978000,4.40797802734375,-3.1384427547454834,0.6129237413406372,0.0800367221236229
1740240347832039400,4.418039306640625,-3.2603931427001953,0.4945797324180603,0.1620856523513794
1740240347842103600,4.428103515625,-3.334394931793213,0.2442750781774521,0.23453295230865479
1740240347852166400,4.43816650390625,-3.3294310569763184,0.03818800672888756,0.3403787612915039
1740240347862229200,4.448229248046875,-3.3181569576263428,-0.07013686746358871,0.4739770293235779
1740240347872293400,4.45829345703125,-3.4066519737243652,-0.1829398274421692,0.603157103061676
1740240347882356500,4.4683564453125,-3.532297134399414,-0.23713035881519318,0.7392821907997131
1740240347892419300,4.47841943359375,-3.626777172088623,-0.20961153507232666,0.8458009958267212
1740240347902483500,4.4884833984375,-3.743075132369995,-0.12339462339878082,0.9280449748039246
1740240347912546300,4.49854638671875,-3.873537540435791,-0.04679112508893013,1.0410763025283813
1740240347922609400,4.508609375,-3.97956919670105,-0.12609127163887024,1.102898120880127
1740240347932672500,4.518672607421875,-4.1049604415893555,-0.28831201791763306,1.175950050354004
1740240347942736400,4.528736328125,-4.2133636474609375,-0.45916393399238586,1.2685368061065674
1740240347952799200,4.53879931640625,-4.275775909423828,-0.6002392172813416,1.3316274881362915
1740240347962862600,4.548862548828125,-4.146603107452393,-0.693454921245575,1.3484679460525513
1740240347972926500,4.558926513671875,-3.8897411823272705,-0.6101778149604797,1.4102363586425781
1740240347982989300,4.5689892578125,-3.693788528442383,-0.5370641946792603,1.4576581716537476
1740240347993052400,4.579052490234375,-3.595696210861206,-0.5411562919616699,1.4611098766326904
1740240348003115500,4.589115478515625,-3.501710891723633,-0.5568183660507202,1.4096908569335938
1740240348013179400,4.599179443359375,-3.3541836738586426,-0.5909901261329651,1.3317112922668457
1740240348023242500,4.609242431640625,-3.185051441192627,-0.6275672912597656,1.2805124521255493
1740240348033305300,4.619305419921875,-3.0407938957214355,-0.7038359642028809,1.2446115016937256
1740240348043369500,4.629369384765625,-2.9801254272460938,-0.7691393494606018,1.223044753074646
1740240348053432600,4.6394326171875,-2.953267812728882,-0.7961272597312927,1.2270293235778809
1740240348063495400,4.649495361328125,-2.9035181999206543,-0.8469001650810242,1.244885802268982
1740240348073559600,4.6595595703125,-2.8131747245788574,-0.8407447338104248,1.2786307334899902
1740240348083622400,4.669622314453125,-2.7059597969055176,-0.8458393812179565,1.2935165166854858
1740240348093685500,4.679685546875,-2.5758702754974365,-0.9642025232315063,1.2593599557876587
1740240348103748400,4.689748291015625,-2.4758009910583496,-1.0886744260787964,1.2733063697814941
1740240348113812500,4.6998125,-2.4952926635742188,-1.1001746654510498,1.3349412679672241
1740240348123875300,4.709875244140625,-2.500215530395508,-1.0318459272384644,1.3485567569732666
1740240348133938400,4.7199384765625,-2.46932053565979,-0.9553298354148865,1.3400932550430298
1740240348144002600,4.73000244140625,-2.37933611869812,-0.9125184416770935,1.3791812658309937
1740240348154065400,4.7400654296875,-2.2391204833984375,-0.9051123857498169,1.4669742584228516
1740240348164128300,4.750128173828125,-2.1195743083953857,-0.9863409399986267,1.5505951642990112
1740240348174191400,4.76019140625,-1.9951106309890747,-1.1137607097625732,1.6200392246246338
1740240348184255500,4.77025537109375,-1.878861427307129,-1.1675724983215332,1.7185769081115723
1740240348194318600,4.780318603515625,-1.779210090637207,-1.148356556892395,1.8425748348236084
1740240348204381400,4.79038134765625,-1.6519279479980469,-1.0403903722763062,1.9765396118164062
1740240348214445300,4.8004453125,-1.4637595415115356,-0.898979663848877,2.085052251815796
1740240348224508400,4.81050830078125,-1.225012183189392,-0.7963342666625977,2.150038719177246
1740240348234571500,4.820571533203125,-0.9650315046310425,-0.6908456683158875,2.2385711669921875
1740240348244635400,4.830635498046875,-0.6542502045631409,-0.5750927329063416,2.352248430252075
1740240348254698500,4.840698486328125,-0.3384867310523987,-0.5108796954154968,2.458587169647217
1740240348264761300,4.85076123046875,-0.08332366496324539,-0.47810736298561096,2.545348882675171
1740240348274824400,4.860824462890625,0.12608756124973297,-0.44498831033706665,2.6001217365264893
1740240348284888600,4.870888671875,0.34434640407562256,-0.4188595116138458,2.6241133213043213
1740240348294951400,4.880951416015625,0.5626153349876404,-0.39860936999320984,2.6233954429626465
1740240348305014300,4.89101416015625,0.7887214422225952,-0.3530687689781189,2.6299078464508057
1740240348315078400,4.901078369140625,1.0449813604354858,-0.32636111974716187,2.628098249435425
1740240348325141500,4.9111416015625,1.330163836479187,-0.3029692471027374,2.5997464656829834
1740240348335204400,4.921204345703125,1.5988171100616455,-0.21699868142604828,2.564476251602173
1740240348345267500,4.931267333984375,1.8297145366668701,-0.03741241618990898,2.5355634689331055
1740240348355331300,4.941331298828125,2.0366973876953125,0.06122547760605812,2.4700779914855957
1740240348365394400,4.95139453125,2.217495918273926,-0.03368878364562988,2.407414197921753
1740240348375457500,4.96145751953125,2.3101236820220947,-0.25915366411209106,2.3167715072631836
1740240348385521400,4.971521484375,2.366642951965332,-0.5243086218833923,2.178084135055542
1740240348395584300,4.981584228515625,2.363947868347168,-0.6685627698898315,1.9540066719055176
1740240348405647600,4.991647705078125,2.2983903884887695,-0.6889210343360901,1.6259700059890747
1740240348415710500,5.00171044921875,2.227696657180786,-0.720716118812561,1.2339608669281006
1740240348425774300,5.0117744140625,2.161892890930176,-0.724983811378479,0.8520302176475525
1740240348435837400,5.02183740234375,2.1443674564361572,-0.9187527298927307,0.557735800743103
1740240348445900500,5.031900634765625,2.0654075145721436,-1.0435423851013184,0.22535039484500885
1740240348455964400,5.04196435546875,2.1049506664276123,-1.2131073474884033,-0.2348954677581787
1740240348466027500,5.052027587890625,2.0945041179656982,-1.4018256664276123,-0.7189548015594482
1740240348476090400,5.06209033203125,2.072138547897339,-1.458720088005066,-1.1904714107513428
1740240348486153500,5.072153564453125,2.1786088943481445,-1.506460428237915,-1.6463475227355957
1740240348496217600,5.082217529296875,2.3361852169036865,-1.4023345708847046,-2.061704397201538
1740240348506280400,5.092280517578125,2.402434825897217,-1.2413698434829712,-2.4558639526367188
1740240348516343300,5.10234326171875,2.4624054431915283,-1.130371332168579,-2.852632522583008
1740240348526407400,5.112407470703125,2.5698206424713135,-0.9968141317367554,-3.2141575813293457
1740240348536470500,5.122470458984375,2.6375319957733154,-0.7187696695327759,-3.4885129928588867
1740240348546533400,5.132533447265625,2.6151092052459717,-0.3533285856246948,-3.665639877319336
1740240348556596500,5.142596435546875,2.5496296882629395,-0.1171312928199768,-3.755070209503174
1740240348566660400,5.152660400390625,2.493767738342285,-0.017220143228769302,-3.760578155517578
1740240348576723500,5.162723388671875,2.449838638305664,-0.00646342895925045,-3.670984983444214
1740240348586786600,5.17278662109375,2.416642427444458,0.12758758664131165,-3.497936964035034
1740240348596850400,5.182850341796875,2.378221035003662,0.3725685775279999,-3.318039894104004
1740240348606913300,5.192913330078125,2.3037335872650146,0.5412910580635071,-3.201948881149292
1740240348616976400,5.202976318359375,2.1773855686187744,0.5682703852653503,-3.182985305786133
1740240348627039500,5.21303955078125,2.024247169494629,0.564929187297821,-3.251549243927002
1740240348637103400,5.223103271484375,1.8491439819335938,0.5028019547462463,-3.3468925952911377
1740240348647166500,5.23316650390625,1.6473674774169922,0.3028070628643036,-3.445765495300293
1740240348657229300,5.243229248046875,1.415393590927124,0.10575251281261444,-3.494022846221924
1740240348667293200,5.253293212890625,1.1784780025482178,0.0010745669715106487,-3.4609858989715576
1740240348677356500,5.2633564453125,0.9749583601951599,0.01611071079969406,-3.3509230613708496
1740240348687419400,5.27341943359375,0.7805089354515076,-0.017318883910775185,-3.1609060764312744
1740240348697482200,5.283482177734375,0.5721540451049805,-0.10274633020162582,-2.9511983394622803
1740240348707546400,5.29354638671875,0.3911650478839874,-0.20097090303897858,-2.7533822059631348
1740240348717609500,5.303609375,0.24042195081710815,-0.2658084034919739,-2.590332269668579
1740240348727672300,5.31367236328125,0.14919829368591309,-0.24112090468406677,-2.5136220455169678
1740240348737736400,5.323736328125,0.0699748694896698,-0.13427186012268066,-2.4912281036376953
1740240348747799300,5.33379931640625,-0.013653178699314594,-0.058729689568281174,-2.5052402019500732
1740240348757862400,5.3438623046875,-0.10396423190832138,0.038274481892585754,-2.484575033187866
1740240348767925500,5.353925537109375,-0.17278271913528442,0.0175982303917408,-2.467116594314575
1740240348777989400,5.3639892578125,-0.23308488726615906,-0.09504704922437668,-2.4682726860046387
1740240348788052200,5.37405224609375,-0.29073911905288696,-0.19974656403064728,-2.465454578399658
1740240348798115600,5.384115478515625,-0.33644160628318787,-0.21651296317577362,-2.4618756771087646
1740240348808179500,5.394179443359375,-0.30941104888916016,-0.1337166130542755,-2.46103835105896
1740240348818242300,5.4042421875,-0.24347296357154846,-0.090500108897686,-2.462021827697754
1740240348828305400,5.414305419921875,-0.23719589412212372,-0.04716195911169052,-2.4890522956848145
1740240348838369000,5.424369140625,-0.2827311158180237,-0.0662861168384552,-2.5741822719573975
1740240348848433200,5.43443310546875,-0.3881126642227173,-0.1554277092218399,-2.6915457248687744
1740240348858496300,5.444496337890625,-0.48963066935539246,-0.12382946908473969,-2.7746975421905518
1740240348868559000,5.45455908203125,-0.5200468897819519,-0.1874294877052307,-2.8939507007598877
1740240348878623200,5.464623291015625,-0.4759306013584137,-0.2375914752483368,-3.053635358810425
1740240348888686000,5.47468603515625,-0.4186859428882599,-0.18888172507286072,-3.2087130546569824
1740240348898749200,5.484749267578125,-0.41002264618873596,-0.20974645018577576,-3.3033242225646973
1740240348908812300,5.494812255859375,-0.4276016354560852,-0.22493098676204681,-3.3306033611297607
1740240348918876200,5.504876220703125,-0.5038152933120728,-0.19654762744903564,-3.378129720687866
1740240348928939000,5.51493896484375,-0.5579277873039246,-0.23287874460220337,-3.496034860610962
1740240348939002400,5.52500244140625,-0.5667338371276855,-0.25146210193634033,-3.6155853271484375
1740240348949066200,5.535066162109375,-0.5840119123458862,-0.1866636574268341,-3.6885123252868652
1740240348959129000,5.545129150390625,-0.6082522869110107,-0.1238037645816803,-3.7397234439849854
1740240348969192200,5.555192138671875,-0.6929663419723511,-0.09446824342012405,-3.7702078819274902
1740240348979255300,5.56525537109375,-0.7850216031074524,-0.13609415292739868,-3.755220890045166
1740240348989319200,5.575319091796875,-0.8675255179405212,-0.19915460050106049,-3.691845417022705
1740240348999382300,5.58538232421875,-0.9059243202209473,-0.2990401089191437,-3.6031455993652344
1740240349009445000,5.595445068359375,-0.8864786624908447,-0.4055119752883911,-3.474116563796997
1740240349019509000,5.605509033203125,-0.857081949710846,-0.4239877760410309,-3.350431203842163
1740240349029572400,5.615572265625,-0.8295339941978455,-0.42478111386299133,-3.251356601715088
1740240349039635200,5.62563525390625,-0.8811213970184326,-0.4387017786502838,-3.1929802894592285
1740240349049698000,5.635697998046875,-0.980760395526886,-0.5349023938179016,-3.162574291229248
1740240349059762200,5.64576220703125,-1.0301645994186401,-0.6113448739051819,-3.102494478225708
1740240349069825300,5.6558251953125,-1.0187638998031616,-0.5631741881370544,-2.917907476425171
1740240349079888100,5.66588818359375,-1.0309520959854126,-0.4859801232814789,-2.6743264198303223
1740240349089952300,5.6759521484375,-1.0467686653137207,-0.38367772102355957,-2.468912363052368
1740240349100015000,5.68601513671875,-1.0109277963638306,-0.19667793810367584,-2.307861089706421
1740240349110078200,5.696078125,-0.9914894104003906,-0.09302958101034164,-2.230153799057007
1740240349120141300,5.706141357421875,-1.0003422498703003,-0.11202564090490341,-2.2180263996124268
1740240349130205200,5.716205078125,-0.979206383228302,-0.1727830022573471,-2.202786684036255
1740240349140268000,5.72626806640625,-0.9694270491600037,-0.2509942948818207,-2.1794214248657227
1740240349150331100,5.7363310546875,-0.9478634595870972,-0.30538618564605713,-2.113107204437256
1740240349160395300,5.746395263671875,-0.9723825454711914,-0.29359519481658936,-1.9153649806976318
1740240349170458000,5.7564580078125,-1.0279603004455566,-0.4511728286743164,-1.7028533220291138
1740240349180521200,5.766521240234375,-1.1025025844573975,-0.5454941391944885,-1.5108307600021362
1740240349190584000,5.776583984375,-1.1647433042526245,-0.3720395267009735,-1.3316292762756348
1740240349200648200,5.786648193359375,-1.2259347438812256,-0.19339972734451294,-1.2391105890274048
1740240349210711300,5.796711181640625,-1.304127812385559,-0.1596343070268631,-1.21218740940094
1740240349220774100,5.806774169921875,-1.3884990215301514,-0.1763971596956253,-1.1018643379211426
1740240349230837000,5.8168369140625,-1.457181692123413,-0.2414616346359253,-0.8537414073944092
1740240349240901000,5.826901123046875,-1.4959806203842163,-0.31835392117500305,-0.4799513816833496
1740240349250964200,5.836964111328125,-1.4898632764816284,-0.4838704466819763,-0.055794235318899155
1740240349261027000,5.847027099609375,-1.4955193996429443,-0.750035285949707,0.3328019082546234
1740240349271091200,5.85709130859375,-1.5064055919647217,-0.9917248487472534,0.6729735732078552
1740240349281154000,5.867154052734375,-1.4876004457473755,-0.9896392822265625,1.0081918239593506
1740240349291217200,5.877217041015625,-1.4557076692581177,-0.7770151495933533,1.3461296558380127
1740240349301280300,5.8872802734375,-1.3880888223648071,-0.5800524353981018,1.671180009841919
1740240349311344000,5.89734423828125,-1.282218098640442,-0.6249679923057556,1.9566607475280762
1740240349321407000,5.907406982421875,-1.1797826290130615,-0.683236300945282,2.2393767833709717
1740240349331470300,5.91747021484375,-1.1013219356536865,-0.6042341589927673,2.5500965118408203
1740240349341534200,5.9275341796875,-1.0342278480529785,-0.7038626670837402,2.745788812637329
1740240349351597000,5.93759716796875,-1.015356183052063,-0.7228075861930847,2.965028762817383
1740240349361660200,5.94766015625,-0.9482555985450745,-0.6199043393135071,3.2309226989746094
1740240349371723300,5.95772314453125,-0.7993332147598267,-0.18374831974506378,3.453732490539551
1740240349381787100,5.967787109375,-0.5735377073287964,0.3734551966190338,3.615654945373535
1740240349391850200,5.977850341796875,-0.23775549232959747,0.8556673526763916,3.8547894954681396
1740240349401913000,5.9879130859375,0.09739948809146881,1.2593382596969604,4.1124162673950195
1740240349411976200,5.99797607421875,0.4222707748413086,1.6920199394226074,4.566798686981201
1740240349422040300,6.008040283203125,0.7222261428833008,2.170788288116455,4.996291160583496
1740240349432103200,6.018103271484375,0.9144142270088196,2.2890617847442627,5.2715935707092285
1740240349442166000,6.028166015625,0.9341586232185364,2.132176637649536,5.492806911468506
1740240349452230100,6.038230224609375,0.8884987235069275,1.7366076707839966,5.71049165725708
1740240349462293200,6.048293212890625,0.8064061999320984,1.2287057638168335,5.875964641571045
1740240349472356000,6.058356201171875,0.702740490436554,0.9272865653038025,6.03731107711792
1740240349482419200,6.068419189453125,0.7110859751701355,0.6106765866279602,6.094016075134277
1740240349492483000,6.078483154296875,0.7256382703781128,0.44182631373405457,6.087550640106201
1740240349502546200,6.088546142578125,0.71455317735672,0.46617212891578674,6.043511867523193
1740240349512609300,6.098609375,0.6691017746925354,0.5082990527153015,5.909117221832275
1740240349522672000,6.108672119140625,0.6212294697761536,0.5362067222595215,5.678431510925293
1740240349532736000,6.118736083984375,0.5555551648139954,0.6132562160491943,5.432924270629883
1740240349542799400,6.12879931640625,0.5527445673942566,0.8170414566993713,5.218050003051758
1740240349552862200,6.1388623046875,0.5510542392730713,0.9774609804153442,5.001025676727295
1740240349562926000,6.148926025390625,0.6093732118606567,1.2053693532943726,4.859827518463135
1740240349572989200,6.1589892578125,0.6722299456596375,1.3956878185272217,4.707939624786377
1740240349583052000,6.169052001953125,0.6346914768218994,1.4685651063919067,4.496150016784668
1740240349593115100,6.179115234375,0.609461784362793,1.598558783531189,4.373020172119141
1740240349603179300,6.18917919921875,0.6409069299697876,1.6974897384643555,4.322525501251221
1740240349613242000,6.1992421875,0.6364163160324097,1.5122796297073364,4.131669044494629
1740240349623305000,6.209304931640625,0.511763334274292,1.1116429567337036,3.8908095359802246
1740240349633368300,6.219368408203125,0.35762596130371094,0.8921820521354675,3.750927686691284
1740240349643432200,6.22943212890625,0.22269631922245026,0.7922612428665161,3.65392804145813
1740240349653495000,6.2394951171875,0.11119268834590912,0.773212730884552,3.561457633972168
1740240349663558100,6.24955810546875,0.08199730515480042,0.8257348537445068,3.4858510494232178
1740240349673622000,6.2596220703125,0.10213426500558853,0.8726615905761719,3.4100329875946045
1740240349683685000,6.26968505859375,0.08546426147222519,0.9204534292221069,3.3094229698181152
1740240349693748200,6.279748291015625,0.0573631227016449,0.9022360444068909,3.2106685638427734
1740240349703811000,6.28981103515625,0.036844316869974136,0.7953083515167236,3.149115800857544
1740240349713875000,6.299875,-0.0015600622864440084,0.6714380979537964,3.14048171043396
1740240349723938300,6.309938232421875,-0.02937234751880169,0.5570467114448547,3.158447504043579
1740240349734001200,6.320001220703125,-0.026032477617263794,0.44932183623313904,3.140594482421875
1740240349744065300,6.330065185546875,-0.026701053604483604,0.3494672179222107,3.081772804260254
1740240349754128100,6.340128173828125,-0.04834908992052078,0.25247225165367126,3.0093722343444824
1740240349764191200,6.350191162109375,-0.07943408191204071,0.16939890384674072,2.9545910358428955
1740240349774254000,6.360254150390625,-0.07895764708518982,0.1749396175146103,2.8956527709960938
1740240349784318200,6.370318115234375,-0.03506865352392197,0.2511811852455139,2.796064615249634
1740240349794381000,6.380381103515625,0.06312502175569534,0.28072839975357056,2.6374309062957764
1740240349804444200,6.390444091796875,0.15340283513069153,0.31570518016815186,2.441579818725586
1740240349814507300,6.40050732421875,0.21482837200164795,0.30933889746665955,2.2392537593841553
1740240349824571100,6.410571044921875,0.19404096901416779,0.12997300922870636,2.1088411808013916
1740240349834633700,6.4206337890625,0.09947530925273895,0.028644001111388206,2.146082639694214
1740240349844697000,6.430697021484375,0.012406619265675545,-0.00550526287406683,2.2308273315429688
1740240349854760000,6.440760009765625,-0.035919900983572006,-0.025230232626199722,2.235466718673706
1740240349864823800,6.45082373046875,-0.03902946785092354,0.006932908669114113,2.1539511680603027
1740240349874887000,6.460886962890625,-0.021137289702892303,0.11807381361722946,2.0043070316314697
1740240349884950000,6.470949951171875,0.015859883278608322,0.29644492268562317,1.8229448795318604
1740240349895012900,6.481012939453125,0.09568999707698822,0.4260079860687256,1.5973975658416748
1740240349905077000,6.491076904296875,0.16871462762355804,0.4597618877887726,1.3693034648895264
1740240349915139800,6.501139892578125,0.18572822213172913,0.4639560878276825,1.2189592123031616
1740240349925203000,6.511202880859375,0.1721479594707489,0.43718573451042175,1.154255986213684
1740240349935267000,6.52126708984375,0.14518532156944275,0.40468743443489075,1.0926542282104492
1740240349945330000,6.531329833984375,0.12388584762811661,0.35074400901794434,1.0013082027435303
1740240349955392800,6.541392822265625,0.09402089565992355,0.30894410610198975,0.8987594246864319
1740240349965456100,6.5514560546875,0.0859774500131607,0.3002109229564667,0.8554536700248718
1740240349975520000,6.56152001953125,0.09134984761476517,0.29016199707984924,0.8400059938430786
1740240349985582800,6.571582763671875,0.11100983619689941,0.2610962688922882,0.8302319049835205
1740240349995646000,6.58164599609375,0.15051734447479248,0.23152752220630646,0.799845814704895
1740240350005709000,6.591708984375,0.1835390031337738,0.2035646140575409,0.7300431132316589
1740240350015773000,6.60177294921875,0.20833542943000793,0.17860573530197144,0.62282794713974
1740240350025836000,6.6118359375,0.21586765348911285,0.17147569358348846,0.45482882857322693
1740240350035899000,6.62189892578125,0.18722376227378845,0.16658534109592438,0.2287544161081314
1740240350045962800,6.631962646484375,0.12743055820465088,0.19535070657730103,0.0007059623603709042
1740240350056025900,6.64202587890625,0.04723053053021431,0.2423616349697113,-0.17495134472846985
1740240350066089000,6.6520888671875,-0.03132472187280655,0.305314302444458,-0.27956223487854004
1740240350076151800,6.66215185546875,-0.06776555627584457,0.353435754776001,-0.3195543885231018
1740240350086216000,6.6722158203125,-0.09294041991233826,0.4256595969200134,-0.3545171320438385
1740240350096278800,6.68227880859375,-0.12056326121091843,0.5462632775306702,-0.4373007118701935
1740240350106342000,6.692341796875,-0.15472857654094696,0.6454226970672607,-0.5855404138565063
1740240350116405000,6.702405029296875,-0.22000159323215485,0.7083244323730469,-0.7973957061767578
1740240350126468900,6.71246875,-0.29514044523239136,0.8074119687080383,-1.0753648281097412
1740240350136531700,6.72253173828125,-0.35391268134117126,0.8622866272926331,-1.4209457635879517
1740240350146595000,6.732594970703125,-0.40808212757110596,0.8697651028633118,-1.7798696756362915
1740240350156658000,6.742657958984375,-0.45892801880836487,0.8883854150772095,-2.093611717224121
1740240350166721800,6.7527216796875,-0.4937092363834381,0.8740814328193665,-2.3219566345214844
1740240350176785000,6.762784912109375,-0.471185564994812,0.8435783982276917,-2.411708354949951
1740240350186848000,6.772847900390625,-0.4595893919467926,0.6994055509567261,-2.410970687866211
1740240350196911900,6.782911865234375,-0.4691091477870941,0.477404922246933,-2.38905930519104
1740240350206975000,6.79297509765625,-0.47920042276382446,0.21902474761009216,-2.3562121391296387
1740240350217037800,6.803037841796875,-0.5206061601638794,-0.056631602346897125,-2.323225736618042
1740240350227101000,6.813100830078125,-0.5804082155227661,-0.20686687529087067,-2.304321527481079
1740240350237165000,6.8231650390625,-0.6137131452560425,-0.2339179366827011,-2.318298578262329
1740240350247228000,6.833227783203125,-0.6068610548973083,-0.2636139690876007,-2.3933050632476807
1740240350257290800,6.843290771484375,-0.6163360476493835,-0.34392398595809937,-2.5015509128570557
1740240350267354000,6.85335400390625,-0.6246519684791565,-0.41889938712120056,-2.5515122413635254
1740240350277418000,6.86341796875,-0.618778645992279,-0.4933145046234131,-2.55293607711792
1740240350287480800,6.873480712890625,-0.5789730548858643,-0.5335070490837097,-2.516397476196289
1740240350297544000,6.8835439453125,-0.504206120967865,-0.5218267440795898,-2.4389920234680176
1740240350307607000,6.89360693359375,-0.41408440470695496,-0.5594333410263062,-2.338355302810669
1740240350317671000,6.9036708984375,-0.3463341295719147,-0.6358530521392822,-2.230858087539673
1740240350327734000,6.913734130859375,-0.3087315261363983,-0.6745601296424866,-2.1269304752349854
1740240350337796900,6.923796875,-0.28340965509414673,-0.6890791654586792,-2.0558998584747314
1740240350347860000,6.93385986328125,-0.26054373383522034,-0.6679186820983887,-2.0358049869537354
1740240350357924000,6.943924072265625,-0.2572097182273865,-0.6557610630989075,-2.0763814449310303
1740240350367987000,6.953987060546875,-0.25737884640693665,-0.6953905820846558,-2.1665079593658447
1740240350378049800,6.9640498046875,-0.2478143721818924,-0.7011270523071289,-2.2354483604431152
1740240350388114000,6.974114013671875,-0.24507392942905426,-0.5543777346611023,-2.2469229698181152
1740240350398177000,6.984177001953125,-0.23680853843688965,-0.367413192987442,-2.2117550373077393
1740240350408239900,6.994239990234375,-0.21451851725578308,-0.25552964210510254,-2.158747911453247
1740240350418303000,7.004302978515625,-0.22132182121276855,-0.16634385287761688,-2.1194779872894287
1740240350428366800,7.014366943359375,-0.27141833305358887,-0.22541891038417816,-2.0832626819610596
1740240350438430000,7.024429931640625,-0.31538525223731995,-0.4501473903656006,-1.9682047367095947
1740240350448493000,7.0344931640625,-0.270952969789505,-0.7097287774085999,-1.8842136859893799
1740240350458556000,7.044555908203125,-0.2230626940727234,-0.7892268300056458,-1.848137617111206
1740240350468619800,7.054619873046875,-0.154962956905365,-0.6343458294868469,-1.8208891153335571
1740240350478683000,7.064682861328125,-0.03468260541558266,-0.4918811321258545,-1.823781132698059
1740240350488746000,7.07474609375,0.06668300181627274,-0.33944833278656006,-1.8516228199005127
1740240350498808800,7.084808837890625,0.1344633847475052,-0.23750756680965424,-1.8907790184020996
1740240350508873000,7.094873046875,0.14425800740718842,-0.15581025183200836,-1.9399056434631348
1740240350518935800,7.104935791015625,0.1340314745903015,-0.12398893386125565,-1.95407235622406
1740240350528999000,7.1149990234375,0.13104388117790222,-0.2164004147052765,-1.9379017353057861
1740240350539062000,7.12506201171875,0.15567253530025482,-0.39485326409339905,-1.9256101846694946
1740240350549126000,7.1351259765625,0.18509289622306824,-0.5244734287261963,-1.8892005681991577
1740240350559188700,7.145188720703125,0.19709628820419312,-0.6100780367851257,-1.8545962572097778
1740240350569252000,7.155252197265625,0.18035128712654114,-0.5989118218421936,-1.8782806396484375
1740240350579315000,7.16531494140625,0.11439385265111923,-0.598430871963501,-1.9898221492767334
1740240350589378800,7.17537890625,0.015153390355408192,-0.43533745408058167,-2.121312379837036
1740240350599442000,7.18544189453125,-0.12921205163002014,-0.11772031337022781,-2.3017396926879883
1740240350609505000,7.195505126953125,-0.15629415214061737,0.0478530116379261,-2.3301541805267334
1740240350619569000,7.20556884765625,-0.15772001445293427,0.012894764542579651,-2.2440073490142822
1740240350629632000,7.215632080078125,-0.19202077388763428,-0.2419593632221222,-2.180943727493286
1740240350639694800,7.22569482421875,-0.23526811599731445,-0.45836570858955383,-2.147104501724243
1740240350649758000,7.235758056640625,-0.2727241814136505,-0.3892514109611511,-2.0800135135650635
1740240350659822000,7.245822021484375,-0.27659109234809875,-0.06629891693592072,-1.9552427530288696
1740240350669885000,7.255885009765625,-0.26317325234413147,0.2403673380613327,-1.7844257354736328
1740240350679947800,7.26594775390625,-0.21614795923233032,0.4264437258243561,-1.5594255924224854
1740240350690011100,7.27601123046875,-0.14561371505260468,0.5025926232337952,-1.3392620086669922
1740240350700075000,7.286074951171875,-0.08004482090473175,0.49751242995262146,-1.075135588645935
1740240350710137900,7.296137939453125,-0.03799542039632797,0.4247252643108368,-0.8786095976829529
1740240350720201000,7.306200927734375,0.009292199276387691,0.37133660912513733,-0.6874657273292542
1740240350730264000,7.31626416015625,0.04911487549543381,0.2858935296535492,-0.5367679595947266
1740240350740328000,7.326327880859375,0.09608984738588333,0.09475287795066833,-0.4383026659488678
1740240350750391000,7.33639111328125,0.1326695829629898,-0.052168022841215134,-0.36400875449180603
1740240350760454000,7.346453857421875,0.14794068038463593,-0.08728499710559845,-0.22944988310337067
1740240350770517000,7.35651708984375,0.17074628174304962,0.012218056246638298,0.0007879932527430356
1740240350780581000,7.3665810546875,0.16316640377044678,-0.11736923456192017,0.11536117643117905
1740240350790644000,7.37664404296875,0.20619630813598633,-0.30545082688331604,0.19166651368141174
1740240350800706800,7.386706787109375,0.2522394359111786,-0.16713078320026398,0.36364784836769104
1740240350810770000,7.39677001953125,0.2771907448768616,-0.2726482152938843,0.41111987829208374
1740240350820834000,7.406833984375,0.31889107823371887,-0.41993248462677,0.3913608193397522
1740240350830897000,7.41689697265625,0.4189263880252838,-0.30382367968559265,0.4968729317188263
1740240350840959200,7.426959228515625,0.4621678590774536,-0.07606854289770126,0.6665818095207214
1740240350851022600,7.437022705078125,0.39916202425956726,-0.20380786061286926,0.6559278964996338
1740240350861086500,7.44708642578125,0.39628875255584717,-0.16820725798606873,0.6901484727859497
1740240350871149600,7.457149658203125,0.3197585642337799,-0.21064017713069916,0.6567686796188354
1740240350881212400,7.46721240234375,0.29576319456100464,-0.1502346247434616,0.6950074434280396
1740240350891275500,7.477275634765625,0.18674421310424805,-0.22252622246742249,0.6411768198013306
1740240350901339600,7.487339599609375,0.09390588104724884,-0.18636955320835114,0.5884829759597778
1740240350911402500,7.497402587890625,0.04811336472630501,-0.06942878663539886,0.561118483543396
1740240350921465300,7.50746533203125,0.06778853386640549,0.013448516838252544,0.5572142601013184
1740240350931528400,7.517528564453125,0.17589816451072693,0.1319694221019745,0.6319172382354736
1740240350941592600,7.527592529296875,0.23359927535057068,0.12094420194625854,0.6299337148666382
1740240350951655400,7.537655517578125,0.2546626329421997,0.11887300759553909,0.5881472826004028
1740240350961718300,7.54771826171875,0.2301463782787323,0.19025824964046478,0.533600389957428
1740240350971781400,7.557781494140625,0.16673465073108673,0.24586445093154907,0.46364161372184753
1740240350981845500,7.567845458984375,0.10319695621728897,0.24226893484592438,0.4026205837726593
1740240350991908400,7.577908447265625,0.04941431060433388,0.25708135962486267,0.3768879175186157
1740240351001971500,7.587971435546875,0.05447698011994362,0.312270849943161,0.39345571398735046
1740240351012034300,7.598034423828125,0.07276054471731186,0.3875162601470947,0.4158719778060913
1740240351022098200,7.60809814453125,0.05014844238758087,0.41442587971687317,0.41281944513320923
1740240351032161500,7.61816162109375,0.004220736678689718,0.37502744793891907,0.42146870493888855
1740240351042224400,7.628224365234375,-0.05946103855967522,0.29981258511543274,0.46112343668937683
1740240351052287200,7.638287353515625,-0.15316079556941986,0.16310173273086548,0.5028592944145203
1740240351062351400,7.648351318359375,-0.24086640775203705,0.02022366225719452,0.547182559967041
1740240351072414500,7.65841455078125,-0.28184598684310913,-0.014061525464057922,0.5758563876152039
1740240351082477300,7.668477294921875,-0.26614877581596375,0.06472489982843399,0.563755214214325
1740240351092540400,7.67854052734375,-0.24302659928798676,0.2449813038110733,0.4593566954135895
1740240351102604300,7.688604248046875,-0.2103927582502365,0.42302772402763367,0.30475538969039917
1740240351112667400,7.69866748046875,-0.16994334757328033,0.5827915072441101,0.14198943972587585
1740240351122730500,7.70873046875,-0.13476619124412537,0.6889482736587524,0.013554224744439125
1740240351132793300,7.71879345703125,-0.11471236497163773,0.7002238035202026,-0.07078015804290771
1740240351142857200,7.728857177734375,-0.09505477547645569,0.5922856330871582,-0.12551957368850708
1740240351152920600,7.738920654296875,-0.07472004741430283,0.3810737133026123,-0.17541161179542542
1740240351162983400,7.7489833984375,-0.05332234874367714,0.1098581850528717,-0.1959347277879715
1740240351173046300,7.75904638671875,-0.028918683528900146,-0.11887906491756439,-0.1862277239561081
1740240351183110400,7.7691103515625,-0.02665712684392929,-0.19381855428218842,-0.11012523621320724
1740240351193173500,7.779173583984375,-0.051716141402721405,-0.11005041748285294,-0.01222157571464777
1740240351203236400,7.789236328125,-0.08178882300853729,0.009873326867818832,0.06067713350057602
1740240351213299500,7.799299560546875,-0.1172642633318901,0.13352760672569275,0.09171975404024124
1740240351223363300,7.80936328125,-0.13847874104976654,0.24018427729606628,0.09869563579559326
1740240351233426400,7.819426513671875,-0.1261489987373352,0.29328882694244385,0.0709826722741127
1740240351243489500,7.829489501953125,-0.0902666300535202,0.2579617202281952,0.02637552097439766
1740240351253552400,7.839552490234375,-0.03929782286286354,0.14128033816814423,-0.03216090798377991
1740240351263616300,7.8496162109375,0.00446590268984437,0.030949296429753304,-0.12876468896865845
1740240351273679600,7.8596796875,0.024254731833934784,-0.01752564311027527,-0.22722789645195007
1740240351283742500,7.869742431640625,0.03553135320544243,0.015242690220475197,-0.2937842607498169
1740240351293805300,7.879805419921875,0.056598663330078125,0.09358927607536316,-0.30821293592453003
1740240351303869400,7.889869384765625,0.08733686804771423,0.1514459252357483,-0.2965850234031677
1740240351313932500,7.8999326171875,0.10989299416542053,0.14736799895763397,-0.2562275230884552
1740240351323995400,7.909995361328125,0.13062329590320587,0.1208043172955513,-0.21223796904087067
1740240351334058500,7.92005859375,0.15756532549858093,0.0775214284658432,-0.1713036745786667
1740240351344122400,7.930122314453125,0.1697911024093628,0.030737677589058876,-0.13203829526901245
1740240351354185200,7.940185302734375,0.17831182479858398,0.0034969616681337357,-0.09945856779813766
1740240351364248600,7.95024853515625,0.164933443069458,0.015906760469079018,-0.09928493201732635
1740240351374311400,7.9603115234375,0.14668332040309906,0.03042258694767952,-0.1268017739057541
1740240351384375300,7.970375244140625,0.1141887754201889,0.03895695134997368,-0.1581442505121231
1740240351394438400,7.9804384765625,0.09245823323726654,0.0338200181722641,-0.1590065211057663
1740240351404501500,7.99050146484375,0.07396071404218674,0.028571730479598045,-0.14829128980636597
1740240351414564400,8.000564453125,0.06383936107158661,-0.004825416021049023,-0.11653385311365128
1740240351424628500,8.01062841796875,0.05656946823000908,-0.05803297460079193,-0.06122053414583206
1740240351434691300,8.02069140625,0.06595440208911896,-0.09707199037075043,0.012519626878201962
1740240351444754400,8.03075439453125,0.08972471207380295,-0.11525978147983551,0.08817470818758011
1740240351454817500,8.040817626953125,0.11238666623830795,-0.13802869617938995,0.13974928855895996
1740240351464880400,8.05088037109375,0.12312480062246323,-0.16589495539665222,0.17064568400382996
1740240351474944300,8.0609443359375,0.12803959846496582,-0.18239088356494904,0.15954981744289398
1740240351485007600,8.071007568359375,0.1274593025445938,-0.19243793189525604,0.12571755051612854
1740240351495070500,8.081070556640626,0.13352124392986298,-0.2165423482656479,0.1020662933588028
1740240351505133300,8.09113330078125,0.15749529004096985,-0.22159810364246368,0.08150909096002579
1740240351515197400,8.101197509765624,0.16973081231117249,-0.23627811670303345,0.07012347131967545
1740240351525260500,8.111260498046875,0.17805664241313934,-0.22565317153930664,0.08176494389772415
1740240351535323400,8.121323486328125,0.1813121885061264,-0.17772766947746277,0.12954433262348175
1740240351545386200,8.13138623046875,0.17047739028930664,-0.09692390263080597,0.1869434416294098
1740240351555450400,8.141450439453125,0.20302335917949677,0.004300438333302736,0.20817604660987854
1740240351565513500,8.151513427734375,0.2793082594871521,0.028401779010891914,0.1746002435684204
1740240351575576300,8.161576416015626,0.34441041946411133,-0.018432918936014175,0.12896114587783813
1740240351585639400,8.171639404296876,0.35918617248535156,-0.021402612328529358,0.12746338546276093
1740240351595703300,8.181703369140624,0.3460245728492737,0.014759613201022148,0.17155471444129944
1740240351605766700,8.1917666015625,0.34727731347084045,0.00809372216463089,0.22657616436481476
1740240351615829500,8.20182958984375,0.3326198160648346,-0.061753518879413605,0.273464560508728
1740240351625892400,8.211892333984375,0.2858664095401764,-0.15073426067829132,0.3022155165672302
1740240351635956500,8.22195654296875,0.17723196744918823,-0.20684561133384705,0.3062237799167633
1740240351646019600,8.23201953125,0.04602761194109917,-0.23595555126667023,0.25249341130256653
1740240351656082400,8.24208251953125,-0.14196018874645233,-0.29622960090637207,0.1171959936618805
1740240351666145300,8.252145263671874,-0.2657124698162079,-0.31425732374191284,-0.05178210884332657
1740240351676209400,8.26220947265625,-0.24371707439422607,-0.15401113033294678,-0.1684827357530594
1740240351686272300,8.272272216796875,-0.19181978702545166,-0.11823315918445587,-0.2788313329219818
1740240351696335400,8.28233544921875,-0.1138981357216835,-0.10352987051010132,-0.30414479970932007
1740240351706398500,8.2923984375,-0.005018793046474457,-0.040632396936416626,-0.21995720267295837
1740240351716461300,8.30246142578125,0.08228138089179993,-0.00873344112187624,-0.09183581173419952
1740240351726525200,8.312525146484376,0.08889774233102798,-0.03613630309700966,0.0637764185667038
1740240351736588500,8.322588623046874,0.015699591487646103,-0.06140283867716789,0.23576506972312927
1740240351746651400,8.3326513671875,-0.07800319790840149,-0.1223072037100792,0.37028932571411133
1740240351756714200,8.34271435546875,-0.15756045281887054,-0.14814263582229614,0.46208810806274414
1740240351766778400,8.3527783203125,-0.22624844312667847,-0.1530013084411621,0.4701199233531952
1740240351776841500,8.362841552734375,-0.26008549332618713,-0.11026906222105026,0.4201465845108032
1740240351786904300,8.372904296875,-0.2942813038825989,-0.059015993028879166,0.31346142292022705
1740240351796967400,8.382967529296875,-0.3300726115703583,0.007075143977999687,0.20434890687465668
1740240351807031300,8.39303125,-0.3557899594306946,0.04433196783065796,0.15771989524364471
1740240351817094400,8.403094482421874,-0.36261820793151855,0.12756696343421936,0.19760333001613617
1740240351827157500,8.413157470703124,-0.315515398979187,0.0996256023645401,0.264324814081192
1740240351837220900,8.423220947265625,-0.2336265593767166,0.06703607738018036,0.37751540541648865
1740240351847285000,8.433284912109375,-0.19823502004146576,-0.011485099792480469,0.5808097124099731
1740240351857347800,8.443347900390625,-0.16462619602680206,-0.08390064537525177,0.8977492451667786
1740240351867411000,8.453410888671876,-0.18195778131484985,-0.1494743376970291,1.2313036918640137
1740240351877474000,8.46347412109375,-0.21560724079608917,-0.2682341933250427,1.4943994283676147
1740240351887538000,8.473537841796874,-0.2516009211540222,-0.3382289707660675,1.679755687713623
1740240351897600800,8.483600830078124,-0.24717603623867035,-0.3963854908943176,1.81714928150177
1740240351907664100,8.4936640625,-0.20058776438236237,-0.3748666048049927,1.8889789581298828
1740240351917727000,8.50372705078125,-0.0752268061041832,-0.38486000895500183,1.8543000221252441
1740240351927789800,8.513789794921875,0.06701874732971191,-0.31723061203956604,1.798574447631836
1740240351937854000,8.52385400390625,0.16518355906009674,-0.28596529364585876,1.7859126329421997
1740240351947917000,8.5339169921875,0.26025864481925964,-0.4312710762023926,1.8902689218521118
1740240351957980000,8.54397998046875,0.30106043815612793,-0.5382248759269714,2.0717101097106934
1740240351968042800,8.554042724609374,0.2960880398750305,-0.5620756149291992,2.285183906555176
1740240351978107000,8.56410693359375,0.275050550699234,-0.5607953071594238,2.5037615299224854
1740240351988170000,8.574169921875,0.26394757628440857,-0.5590264201164246,2.7511539459228516
1740240351998233000,8.584233154296875,0.23840920627117157,-0.513122022151947,2.989013671875
1740240352008296000,8.5942958984375,0.20064584910869598,-0.44624367356300354,3.1813387870788574
1740240352018359800,8.60435986328125,0.20908966660499573,-0.42047226428985596,3.270402431488037
1740240352028423200,8.614423095703126,0.21491852402687073,-0.3604581952095032,3.2445106506347656
1740240352038486000,8.624486083984374,0.2381487488746643,-0.3261289894580841,3.10959792137146
1740240352048548900,8.634548828125,0.24527482688426971,-0.2451619803905487,2.9577701091766357
1740240352058612000,8.644612060546875,0.22743432223796844,-0.12464701384305954,2.837183713912964
1740240352068676000,8.654676025390625,0.16784235835075378,-0.04179873690009117,2.7635910511016846
1740240352078739000,8.664739013671875,0.1107308641076088,-0.000569561030715704,2.7514781951904297
1740240352088801800,8.6748017578125,0.059649571776390076,0.05051546171307564,2.7219736576080322
1740240352098865200,8.684865234375,0.05803995579481125,0.18521417677402496,2.659283399581909
1740240352108929000,8.694928955078124,0.11383184790611267,0.2713456153869629,2.601804494857788
1740240352118992000,8.704991943359374,0.1463245451450348,0.34722059965133667,2.548081159591675
1740240352129055000,8.715054931640625,0.1650223284959793,0.39389729499816895,2.484490394592285
1740240352139118000,8.7251181640625,0.14123497903347015,0.42086902260780334,2.373591184616089
1740240352149182200,8.73518212890625,0.11397219449281693,0.4266078770160675,2.270021677017212
1740240352159245000,8.7452451171875,0.08187300711870193,0.40768787264823914,2.200421094894409
1740240352169308000,8.755307861328125,0.0528235137462616,0.34360846877098083,2.153043746948242
1740240352179371000,8.76537109375,0.03171306103467941,0.3102705776691437,2.087773084640503
1740240352189434000,8.77543408203125,0.037319015711545944,0.26762351393699646,1.9639315605163574
1740240352199498000,8.785498046875,0.04436361417174339,0.30620694160461426,1.8087091445922852
1740240352209560800,8.795560791015625,0.05131366476416588,0.37604010105133057,1.6178218126296997
1740240352219624000,8.8056240234375,0.06409411877393723,0.4312766194343567,1.4047657251358032
1740240352229687000,8.81568701171875,0.0872388556599617,0.4752259850502014,1.1746792793273926
1740240352239751000,8.8257509765625,0.10366475582122803,0.5041266679763794,0.9439117908477783
1740240352249814000,8.83581396484375,0.10398220270872116,0.5155417919158936,0.7220635414123535
1740240352259876900,8.845876953125,0.0946817472577095,0.4996992349624634,0.5281480550765991
1740240352269940000,8.85593994140625,0.08143678307533264,0.43314313888549805,0.32649537920951843
1740240352280004000,8.866004150390625,0.0802677646279335,0.35740000009536743,0.12545157968997955
1740240352290067000,8.87606689453125,0.05447424575686455,0.25624677538871765,-0.0856630727648735
1740240352300129800,8.8861298828125,0.009967446327209473,0.1827503889799118,-0.32349032163619995
1740240352310193200,8.896193115234375,-0.014371449127793312,0.2093449831008911,-0.5328249335289001
1740240352320256000,8.906256103515625,-0.0579686164855957,0.30992552638053894,-0.6950124502182007
1740240352330320000,8.91631982421875,-0.14557649195194244,0.44043904542922974,-0.8346454501152039
1740240352340383000,8.926383056640624,-0.22079193592071533,0.5491803884506226,-0.9767120480537415
1740240352350446000,8.936446044921874,-0.2566269040107727,0.6699579358100891,-1.098924994468689
1740240352360509000,8.946509033203125,-0.2688784897327423,0.6785234808921814,-1.1887093782424927
1740240352370573000,8.956572998046875,-0.23494206368923187,0.606899082660675,-1.2776986360549927
1740240352380636000,8.966635986328125,-0.16861668229103088,0.5101562142372131,-1.3594485521316528
1740240352390699000,8.976698974609375,-0.08384878933429718,0.3889562487602234,-1.4476481676101685
1740240352400762000,8.98676220703125,-0.04515828192234039,0.2240273505449295,-1.5510345697402954
1740240352410826000,8.996825927734376,-0.07345783710479736,-0.002010310534387827,-1.666212558746338
1740240352420888800,9.006888916015624,-0.13006603717803955,-0.18277853727340698,-1.7414120435714722
1740240352430952200,9.0169521484375,-0.18813492357730865,-0.22920382022857666,-1.7455191612243652
1740240352441015000,9.02701513671875,-0.2007780224084854,-0.3258962631225586,-1.7362074851989746
1740240352451078000,9.037077880859375,-0.2200353443622589,-0.4334333837032318,-1.709883689880371
1740240352461142000,9.04714208984375,-0.27794185280799866,-0.45610520243644714,-1.6191288232803345
1740240352471205000,9.057205078125,-0.30999618768692017,-0.5535143613815308,-1.5763258934020996
1740240352481268000,9.06726806640625,-0.30689018964767456,-0.6028473377227783,-1.5563503503799438
1740240352491330800,9.077330810546876,-0.2710943818092346,-0.5581675171852112,-1.5406590700149536
1740240352501394000,9.087393798828124,-0.21844826638698578,-0.44855058193206787,-1.5367876291275024
1740240352511458000,9.0974580078125,-0.16055646538734436,-0.26659196615219116,-1.4829998016357422
1740240352521521000,9.10752099609375,-0.11434715986251831,-0.040794480592012405,-1.3660489320755005
1740240352531584000,9.117583984375,-0.10423220694065094,-0.02950027771294117,-1.3336966037750244
1740240352541646800,9.127646728515625,-0.1519128978252411,-0.07168788462877274,-1.3523718118667603
1740240352551710700,9.137710693359375,-0.18830659985542297,-0.057313472032547,-1.3505992889404297
1740240352561774000,9.147774169921876,-0.18712548911571503,-0.0032566285226494074,-1.31316077709198
1740240352571837000,9.1578369140625,-0.18170621991157532,0.07890821993350983,-1.1986229419708252
1740240352581899800,9.167899658203124,-0.21908624470233917,0.0533476285636425,-1.0550950765609741
1740240352591964000,9.1779638671875,-0.26246753334999084,-0.01730896160006523,-0.9255884289741516
1740240352602027000,9.188027099609375,-0.3161506652832031,-0.0425969660282135,-0.8315590620040894
1740240352612089900,9.19808984375,-0.3412019610404968,-0.027695247903466225,-0.7911162972450256
1740240352622153000,9.208153076171875,-0.31317979097366333,0.10947664082050323,-0.8295018672943115
1740240352632216000,9.218216064453125,-0.2367238849401474,0.3067454993724823,-0.9413477182388306
1740240352642280000,9.228280029296876,-0.13438695669174194,0.5076454877853394,-1.1124242544174194
1740240352652343000,9.238343017578124,-0.04299020394682884,0.7143533825874329,-1.2864463329315186
1740240352662406000,9.248406005859374,0.03363863006234169,0.9058219194412231,-1.4179924726486206
1740240352672469000,9.258468994140625,0.07639354467391968,1.0289900302886963,-1.5165244340896606
1740240352682532000,9.268531982421875,0.07382658123970032,1.0707168579101562,-1.5521353483200073
1740240352692596000,9.278595947265625,0.04524900019168854,1.057439923286438,-1.537871241569519
1740240352702658800,9.288658935546875,0.02092682756483555,0.8703073263168335,-1.504158854484558
1740240352712722200,9.29872216796875,-0.039508819580078125,0.6047919988632202,-1.4590821266174316
1740240352722785000,9.308784912109376,-0.13426083326339722,0.3765107989311218,-1.4252392053604126
1740240352732849000,9.318848876953124,-0.2143644541501999,0.18486520648002625,-1.437631368637085
1740240352742912000,9.328912109375,-0.28030118346214294,0.10347303003072739,-1.5218064785003662
1740240352752975000,9.33897509765625,-0.3388129770755768,0.2371293604373932,-1.7091138362884521
1740240352763038000,9.349037841796875,-0.39793717861175537,0.45781946182250977,-1.9858927726745605
1740240352773100800,9.359100830078125,-0.4507974684238434,0.6271554827690125,-2.2966344356536865
1740240352783165000,9.3691650390625,-0.4985727071762085,0.755622923374176,-2.5605616569519043
1740240352793228000,9.37922802734375,-0.5261651277542114,0.7968630194664001,-2.779034376144409
1740240352803291000,9.389290771484376,-0.5437674522399902,0.7922977805137634,-2.9315438270568848
1740240352813354000,9.39935400390625,-0.5478404760360718,0.6660463809967041,-2.927215814590454
1740240352823416800,9.409416748046874,-0.5483410954475403,0.45183369517326355,-2.7729947566986084
1740240352833481000,9.41948095703125,-0.5900720357894897,0.28292858600616455,-2.5830695629119873
1740240352843544000,9.4295439453125,-0.6721732020378113,0.21336686611175537,-2.513472318649292
1740240352853607000,9.43960693359375,-0.833436131477356,0.3191809058189392,-2.6014182567596436
1740240352863670000,9.449669921875,-1.044298768043518,0.5613822937011719,-2.7786684036254883
1740240352873734000,9.45973388671875,-1.2640492916107178,0.8240370750427246,-2.98327374458313
1740240352883797000,9.469796875,-1.471161961555481,0.973678708076477,-3.164346694946289
1740240352893860000,9.479860107421874,-1.6039708852767944,0.8499037623405457,-3.268277168273926
1740240352903923000,9.4899228515625,-1.670223355293274,0.5519210696220398,-3.2942750453948975
1740240352913986000,9.499986083984375,-1.7641963958740234,0.29396936297416687,-3.3234009742736816
1740240352924050200,9.51005029296875,-1.9613791704177856,0.26541322469711304,-3.3776562213897705
1740240352934113000,9.520113037109375,-2.2340598106384277,0.41586264967918396,-3.4565906524658203
1740240352944175900,9.53017578125,-2.468839406967163,0.5732399225234985,-3.5794219970703125
1740240352954239200,9.5402392578125,-2.67419695854187,0.6068210601806641,-3.7119970321655273
1740240352964302000,9.550302001953124,-2.7770915031433105,0.49843665957450867,-3.702500343322754
1740240352974366000,9.560365966796875,-2.6890060901641846,0.20463141798973083,-3.4288880825042725
1740240352984429000,9.570428955078125,-2.4538071155548096,-0.12996244430541992,-2.929677963256836
1740240352994492200,9.5804921875,-2.1584115028381348,-0.29875919222831726,-2.3357176780700684
1740240353004555000,9.590554931640625,-1.8083019256591797,-0.2800445556640625,-1.8202673196792603
1740240353014619100,9.600619140625,-1.4253273010253906,-0.08166994899511337,-1.538856863975525
1740240353024682000,9.610681884765626,-0.9863377213478088,0.28443443775177,-1.4025629758834839
1740240353034745000,9.6207451171875,-0.6012015342712402,0.642108142375946,-1.3390870094299316
1740240353044808200,9.63080810546875,-0.40274834632873535,0.9454296827316284,-1.2572180032730103
1740240353054871000,9.64087109375,-0.37115392088890076,1.115454077720642,-0.9992743730545044
1740240353064935000,9.650934814453125,-0.36241939663887024,0.8939477801322937,-0.5775176286697388
1740240353074998000,9.660998046875,-0.4108535051345825,0.4137795865535736,-0.09215815365314484
1740240353085061000,9.67106103515625,-0.406206339597702,-0.24427030980587006,0.33344799280166626
1740240353095124000,9.6811240234375,-0.4374265670776367,-0.8715254068374634,0.7223153114318848
1740240353105186800,9.691186767578126,-0.5257750749588013,-1.4497357606887817,1.085772156715393
1740240353115251000,9.7012509765625,-0.6646423935890198,-1.919747233390808,1.4333900213241577
1740240353125314000,9.71131396484375,-0.8114915490150452,-2.1914355754852295,1.8306547403335571
1740240353135377000,9.721376953125,-0.9561960101127625,-2.3505637645721436,2.290994167327881
1740240353145440000,9.73143994140625,-1.0799728631973267,-2.5425591468811035,2.713303327560425
1740240353155503000,9.741503173828125,-1.2427418231964111,-2.576880931854248,2.909770965576172
1740240353165567200,9.751567138671875,-1.2354681491851807,-2.478060245513916,2.874610424041748
1740240353175630000,9.761630126953126,-1.2017512321472168,-2.325269937515259,2.707113027572632
1740240353185693000,9.77169287109375,-1.0123709440231323,-2.0978121757507324,2.5876147747039795
1740240353195756000,9.781756103515624,-0.7051332592964172,-1.9586776494979858,2.5155067443847656
1740240353205820200,9.791820068359375,-0.5111380815505981,-1.8962421417236328,2.4845025539398193
1740240353215883000,9.801883056640625,-0.33623364567756653,-1.7568632364273071,2.5603175163269043
1740240353225945900,9.81194580078125,-0.15179093182086945,-1.575629711151123,2.7015421390533447
1740240353236009200,9.82200927734375,-0.12136805802583694,-1.574454426765442,2.8689682483673096
1740240353246072000,9.832072021484375,-0.0005052273627370596,-1.6836172342300415,3.2194530963897705
1740240353256136000,9.842135986328126,0.15170134603977203,-1.8189085721969604,3.6203627586364746
1740240353266199000,9.852198974609376,0.21390986442565918,-1.8874748945236206,3.9334053993225098
1740240353276262100,9.86226220703125,0.2719212472438812,-1.833482265472412,4.090291500091553
1740240353286325000,9.872324951171874,0.38035619258880615,-1.6808052062988281,4.1106181144714355
1740240353296388000,9.88238818359375,0.6266179084777832,-1.3549107313156128,4.054431915283203
1740240353306452000,9.892451904296875,0.865562379360199,-0.9777226448059082,3.8729395866394043
1740240353316515000,9.90251513671875,1.087334156036377,-0.5961723327636719,3.646529197692871
1740240353326578200,9.912578125,1.2970895767211914,-0.22774939239025116,3.4198668003082275
1740240353336641000,9.92264111328125,1.4314476251602173,0.03553204983472824,3.172791004180908
1740240353346704100,9.9327041015625,1.461856722831726,0.04767274484038353,2.9467246532440186
1740240353356768300,9.942768310546874,1.4394859075546265,-0.05577028915286064,2.80694580078125
1740240353366831000,9.9528310546875,1.4194650650024414,-0.1228443831205368,2.7771155834198
1740240353376894000,9.96289404296875,1.4577925205230713,-0.12918269634246826,2.7971410751342773
1740240353386957000,9.97295703125,1.5307492017745972,-0.08206353336572647,2.7922885417938232
1740240353397020200,9.983020263671875,1.581571102142334,0.039099372923374176,2.771125316619873
1740240353407084000,9.993083984375,1.6109344959259033,0.2016080617904663,2.733258008956909
1740240353417147100,10.003147216796876,1.6633726358413696,0.36669740080833435,2.6615800857543945
1740240353427210000,10.0132099609375,1.7271922826766968,0.4209608733654022,2.556162118911743
1740240353437273000,10.023273193359374,1.7854340076446533,0.43646207451820374,2.463865041732788
1740240353447336000,10.0333359375,1.8467048406600952,0.4858189821243286,2.394200086593628
1740240353457400000,10.043400146484375,1.8659024238586426,0.543996274471283,2.3348968029022217
1740240353467463000,10.053462890625,1.8762874603271484,0.5687011480331421,2.3116414546966553
1740240353477526000,10.063526123046875,1.88426673412323,0.6067646741867065,2.313725233078003
1740240353487589000,10.073589111328126,1.9073538780212402,0.6739073991775513,2.3149514198303223
1740240353497652000,10.08365185546875,1.9506499767303467,0.6751484274864197,2.303375244140625
1740240353507715800,10.0937158203125,1.9606103897094727,0.5551677346229553,2.272160053253174
1740240353517779200,10.103779296875,1.897455096244812,0.35618856549263,2.214726209640503
1740240353527842000,10.113842041015625,1.8244754076004028,0.10570415109395981,2.1940701007843018
1740240353537905000,10.12390478515625,1.7564483880996704,-0.033921655267477036,2.2150158882141113
1740240353547968300,10.13396826171875,1.7144187688827515,-0.06283389776945114,2.2479445934295654
1740240353558032100,10.1440322265625,1.696132779121399,-0.06358597427606583,2.2736692428588867
1740240353568095000,10.154094970703126,1.681890845298767,-0.010284299030900002,2.3093600273132324
1740240353578158000,10.164157958984376,1.6756236553192139,0.12256962060928345,2.3236985206604004
1740240353588221200,10.17422119140625,1.641196846961975,0.21484850347042084,2.300352096557617
1740240353598284000,10.184283935546874,1.589277982711792,0.19854861497879028,2.3058595657348633
1740240353608348200,10.19434814453125,1.5265347957611084,0.18553179502487183,2.3770856857299805
1740240353618411000,10.204410888671875,1.4904146194458008,0.23268306255340576,2.4185595512390137
1740240353628474000,10.21447412109375,1.4911458492279053,0.2747720777988434,2.4100465774536133
1740240353638537000,10.224536865234375,1.4693310260772705,0.28063687682151794,2.3690407276153564
1740240353648600000,10.23460009765625,1.4296894073486328,0.22228030860424042,2.338711738586426
1740240353658664000,10.244663818359374,1.4015048742294312,0.1974005252122879,2.339371681213379
1740240353668727000,10.25472705078125,1.4045480489730835,0.20731762051582336,2.383216381072998
1740240353678790100,10.2647900390625,1.4316297769546509,0.24863523244857788,2.453579902648926
1740240353688853000,10.27485302734375,1.4525697231292725,0.3457389771938324,2.4969725608825684
1740240353698915800,10.284915771484375,1.4382752180099487,0.49714580178260803,2.4896349906921387
1740240353708980000,10.29497998046875,1.4133045673370361,0.6123721599578857,2.431696891784668
1740240353719043000,10.30504296875,1.403212308883667,0.674071729183197,2.3891024589538574
1740240353729106000,10.31510595703125,1.402869701385498,0.709182858467102,2.386153221130371
1740240353739169000,10.3251689453125,1.3923448324203491,0.6907806396484375,2.4018967151641846
1740240353749232000,10.335232177734374,1.3929260969161987,0.6030578017234802,2.4195210933685303
1740240353759296000,10.3452958984375,1.3819721937179565,0.5186763405799866,2.4345672130584717
1740240353769359000,10.355359130859375,1.3712900876998901,0.5054930448532104,2.442967653274536
1740240353779422000,10.365421875,1.3697361946105957,0.5016987919807434,2.4230167865753174
1740240353789485000,10.375485107421875,1.36184823513031,0.5400953888893127,2.3678131103515625
1740240353799548200,10.385548095703125,1.3647297620773315,0.6620151400566101,2.3021652698516846
1740240353809612000,10.395612060546876,1.3544987440109253,0.7709554433822632,2.232938289642334
1740240353819675000,10.4056748046875,1.335753083229065,0.8065656423568726,2.1825475692749023
1740240353829738200,10.41573828125,1.335788369178772,0.7572877407073975,2.163560628890991
1740240353839801300,10.42580126953125,1.3360371589660645,0.6930773258209229,2.170758008956909
1740240353849864200,10.4358642578125,1.3293414115905762,0.6512068510055542,2.1993093490600586
1740240353859928300,10.44592822265625,1.317482590675354,0.6203099489212036,2.2044403553009033
1740240353869991400,10.455991455078125,1.307032823562622,0.6365388631820679,2.1668193340301514
1740240353880054300,10.46605419921875,1.3042223453521729,0.6636237502098083,2.084660053253174
1740240353890117400,10.476117431640626,1.3142057657241821,0.7334640622138977,1.9864559173583984
1740240353900180200,10.48618017578125,1.3253237009048462,0.7953982949256897,1.8807039260864258
1740240353910244400,10.496244384765625,1.3435877561569214,0.8558468222618103,1.8037089109420776
1740240353920307500,10.506307373046875,1.3634202480316162,0.8983889222145081,1.7541834115982056
1740240353930370300,10.516370361328125,1.3719651699066162,0.8998787999153137,1.7147940397262573
1740240353940433200,10.52643310546875,1.343465805053711,0.8561733961105347,1.7144418954849243
1740240353950496300,10.536496337890625,1.2809959650039673,0.7863910794258118,1.7123314142227173
1740240353960560400,10.546560302734376,1.2128105163574219,0.7777009010314941,1.6612660884857178
1740240353970623200,10.556623291015624,1.1436811685562134,0.8424856662750244,1.585840106010437
1740240353980686000,10.56668603515625,1.0680897235870361,0.903195858001709,1.5096629858016968
1740240353990749400,10.57674951171875,0.9926042556762695,0.9991872310638428,1.4309732913970947
1740240354000812300,10.586812255859375,0.9372107982635498,1.152106523513794,1.3297632932662964
1740240354010876200,10.596876220703125,0.8910040259361267,1.2999651432037354,1.228139877319336
1740240354020939300,10.606939208984375,0.8370590209960938,1.4556865692138672,1.1454687118530273
1740240354031002400,10.61700244140625,0.770026445388794,1.5955296754837036,1.0513229370117188
1740240354041065200,10.627065185546876,0.7168079614639282,1.713484764099121,0.942060649394989
1740240354051128300,10.63712841796875,0.661292314529419,1.8549009561538696,0.8549996018409729
1740240354061191400,10.64719140625,0.5858944654464722,1.9597128629684448,0.7618778944015503
1740240354071255300,10.65725537109375,0.5073806047439575,2.008110284805298,0.6594597697257996
1740240354081318400,10.667318359375,0.43099310994148254,2.029231309890747,0.5535120368003845
1740240354091381200,10.67738134765625,0.3770533502101898,2.0569846630096436,0.48549848794937134
1740240354101444400,10.6874443359375,0.3104996383190155,2.1035971641540527,0.4115923047065735
1740240354111507200,10.697507080078125,0.24579475820064545,2.1680729389190674,0.32323119044303894
1740240354121571300,10.7075712890625,0.19548578560352325,2.280076742172241,0.23685503005981445
1740240354131634200,10.71763427734375,0.16591112315654755,2.4263198375701904,0.14603291451931
1740240354141697300,10.727697265625,0.17492219805717468,2.603005886077881,0.051811348646879196
1740240354151760400,10.737760498046875,0.18912339210510254,2.7704083919525146,-0.07630091905593872
1740240354161823200,10.7478232421875,0.17694902420043945,2.9037063121795654,-0.2433823198080063
1740240354171887400,10.757887451171875,0.1574171781539917,3.008561611175537,-0.40943726897239685
1740240354181950200,10.7679501953125,0.12774769961833954,3.1012730598449707,-0.5152446627616882
1740240354192013300,10.778013427734376,0.09440167248249054,3.1905994415283203,-0.6004600524902344
1740240354202076200,10.788076171875,0.03400677815079689,3.2416553497314453,-0.6746026873588562
1740240354212139300,10.79813916015625,-0.05514248460531235,3.223640203475952,-0.7255851626396179
1740240354222203100,10.808203125,-0.11593393236398697,3.1804184913635254,-0.7008153796195984
1740240354232266200,10.818266357421875,-0.13940107822418213,3.170506238937378,-0.6196599006652832
1740240354242329300,10.828329345703125,-0.14865103363990784,3.2195279598236084,-0.5421384572982788
1740240354252392200,10.83839208984375,-0.13307583332061768,3.3235464096069336,-0.5320078730583191
1740240354262455300,10.848455322265625,-0.12427995353937149,3.426199436187744,-0.6171424984931946
1740240354272519400,10.85851953125,-0.1500675082206726,3.5811307430267334,-0.7620564103126526
1740240354282582300,10.868582275390626,-0.15996967256069183,3.767834186553955,-0.889946460723877
1740240354292645000,10.87864501953125,-0.17603066563606262,3.8818488121032715,-0.9859890341758728
1740240354302708500,10.88870849609375,-0.21665187180042267,3.9193456172943115,-0.9905648827552795
1740240354312771300,10.898771240234375,-0.30103418231010437,3.876569986343384,-0.932128369808197
1740240354322834200,10.908834228515625,-0.37095120549201965,3.7515697479248047,-0.8378530144691467
1740240354332898300,10.918898193359375,-0.4289565086364746,3.5898258686065674,-0.7431215047836304
1740240354342961400,10.92896142578125,-0.4548322856426239,3.45989727973938,-0.6053838729858398
1740240354353024300,10.939024169921876,-0.44709593057632446,3.419891595840454,-0.4376812279224396
1740240354363087000,10.949087158203126,-0.4109445810317993,3.448841094970703,-0.3105081021785736
1740240354373150500,10.959150390625,-0.39301544427871704,3.5377566814422607,-0.2738589644432068
1740240354383214300,10.96921435546875,-0.41520488262176514,3.611870527267456,-0.32484811544418335
1740240354393277400,10.97927734375,-0.46218475699424744,3.689856767654419,-0.4131261706352234
1740240354403340300,10.98934033203125,-0.5399735569953918,3.8376998901367188,-0.4965595602989197
1740240354413403400,10.9994033203125,-0.6196833848953247,3.9636294841766357,-0.5680224299430847
1740240354423466200,11.00946630859375,-0.6940023303031921,3.980292797088623,-0.6146296262741089
1740240354433530400,11.0195302734375,-0.7522936463356018,3.891753673553467,-0.6204948425292969
1740240354443593200,11.02959326171875,-0.8046780228614807,3.729567050933838,-0.5985586643218994
1740240354453656300,11.03965625,-0.8219397068023682,3.565749168395996,-0.5349265933036804
1740240354463719400,11.049719482421875,-0.8163095116615295,3.3183810710906982,-0.4874315857887268
1740240354473782300,11.0597822265625,-0.8883278965950012,3.1784706115722656,-0.414070188999176
1740240354483846100,11.06984619140625,-0.9644753932952881,3.0417702198028564,-0.37166014313697815
1740240354493909200,11.0799091796875,-1.0595484972000122,2.9804532527923584,-0.38916054368019104
1740240354503972400,11.089972412109375,-1.1438367366790771,3.0116055011749268,-0.4369163513183594
1740240354514035200,11.10003515625,-1.2172727584838867,3.117358446121216,-0.4619500935077667
1740240354524098300,11.110098388671876,-1.2954661846160889,3.241262674331665,-0.456621378660202
1740240354534161400,11.120161376953124,-1.333141565322876,3.2768759727478027,-0.46694400906562805
1740240354544225300,11.130225341796875,-1.3601173162460327,3.2607290744781494,-0.4527030289173126
1740240354554288400,11.140288330078125,-1.319676160812378,2.9924979209899902,-0.42858651280403137
1740240354564351200,11.150351318359375,-1.3083065748214722,2.6236205101013184,-0.4171642065048218
1740240354574414300,11.160414306640625,-1.302444577217102,2.3264763355255127,-0.38118869066238403
1740240354584477200,11.170477294921875,-1.283676266670227,2.1216723918914795,-0.33431652188301086
1740240354594541300,11.180541259765626,-1.25570809841156,2.0331830978393555,-0.26453903317451477
1740240354604604200,11.190604248046874,-1.2117222547531128,1.9967467784881592,-0.17194755375385284
1740240354614667300,11.200667236328124,-1.1659525632858276,1.948103904724121,-0.06341246515512466
1740240354624730400,11.21073046875,-1.1219664812088013,1.8378857374191284,0.03779590502381325
1740240354634793200,11.220793212890625,-1.0874525308609009,1.701166033744812,0.13132722675800323
1740240354644857300,11.230857421875,-1.0693670511245728,1.5336776971817017,0.20913174748420715
1740240354654920400,11.24092041015625,-1.0482476949691772,1.373222827911377,0.30092743039131165
1740240354664983300,11.2509833984375,-1.0305893421173096,1.2098780870437622,0.3749087154865265
1740240354675046100,11.261046142578126,-1.0094783306121826,1.0138806104660034,0.42361176013946533
1740240354685109500,11.271109619140624,-0.966346263885498,0.8452436923980713,0.4555891156196594
1740240354695172400,11.28117236328125,-0.9008072018623352,0.6989799737930298,0.45060500502586365
1740240354705236200,11.291236328125,-0.8655272722244263,0.5572022795677185,0.45740991830825806
1740240354715299300,11.30129931640625,-0.8828048706054688,0.4535925090312958,0.4853786826133728
1740240354725362200,11.311362060546875,-0.9122682213783264,0.37156420946121216,0.5192682147026062
1740240354735425300,11.32142529296875,-0.929591178894043,0.29931914806365967,0.551845133304596
1740240354745488400,11.33148828125,-0.9594728946685791,0.27433764934539795,0.5848073363304138
1740240354755552300,11.34155224609375,-0.9786214232444763,0.28230518102645874,0.6285880208015442
1740240354765615000,11.351614990234374,-0.9873760342597961,0.2710365355014801,0.667302131652832
1740240354775678500,11.361678466796874,-1.0039044618606567,0.28185543417930603,0.7325000762939453
1740240354785741300,11.3717412109375,-1.0287128686904907,0.2361912727355957,0.7994551062583923
1740240354795804200,11.38180419921875,-1.0722700357437134,0.17750363051891327,0.8334828615188599
1740240354805867300,11.3918671875,-1.1204432249069214,0.10309917479753494,0.8505068421363831
1740240354815931400,11.401931396484375,-1.1561076641082764,0.015045869164168835,0.8587316274642944
1740240354825994200,11.411994140625,-1.1948579549789429,-0.05699609965085983,0.8573707342147827
1740240354836057000,11.42205712890625,-1.2475425004959106,-0.07283449172973633,0.8723915815353394
1740240354846120200,11.4321201171875,-1.2982085943222046,-0.13544434309005737,0.9083343744277954
1740240354856183000,11.44218310546875,-1.3603063821792603,-0.20549754798412323,0.9661591649055481
1740240354866247200,11.4522470703125,-1.3986819982528687,-0.30040860176086426,1.0634338855743408
1740240354876310000,11.46231005859375,-1.4214407205581665,-0.45030641555786133,1.159912347793579
1740240354886373000,11.472373046875,-1.4184718132019043,-0.5843116044998169,1.2185945510864258
1740240354896436000,11.48243603515625,-1.3862322568893433,-0.6924160122871399,1.218623399734497
1740240354906499000,11.4924990234375,-1.3631218671798706,-0.7350029349327087,1.2046769857406616
1740240354916562200,11.502562255859376,-1.3580288887023926,-0.7701137661933899,1.2122321128845215
1740240354926626300,11.512626220703124,-1.3828312158584595,-0.8101692795753479,1.2188631296157837
1740240354936689200,11.522689208984374,-1.42684006690979,-0.8213841319084167,1.2120814323425293
1740240354946752000,11.532751953125,-1.4575998783111572,-0.8821425437927246,1.1982239484786987
1740240354956815000,11.542815185546875,-1.4970165491104126,-1.030746579170227,1.1921931505203247
1740240354966878200,11.552878173828125,-1.5335363149642944,-1.2050936222076416,1.1813580989837646
1740240354976941000,11.562941162109375,-1.5557901859283447,-1.3317373991012573,1.19025719165802
1740240354987005000,11.5730048828125,-1.5619194507598877,-1.408939242362976,1.2452008724212646
1740240354997068300,11.583068359375,-1.5565911531448364,-1.4424691200256348,1.3217768669128418
1740240355007131100,11.593131103515624,-1.559716820716858,-1.4504247903823853,1.3666683435440063
1740240355017194000,11.603194091796874,-1.583111047744751,-1.4356420040130615,1.3862298727035522
1740240355027257000,11.613257080078125,-1.6348799467086792,-1.3905551433563232,1.378024697303772
1740240355037321200,11.6233212890625,-1.7086013555526733,-1.3876136541366577,1.290755033493042
1740240355047384000,11.633384033203125,-1.7619456052780151,-1.428544521331787,1.1699450016021729
1740240355057447200,11.643447265625,-1.7753450870513916,-1.5499461889266968,1.0795340538024902
1740240355067510000,11.653510009765625,-1.7473113536834717,-1.7424533367156982,1.0540834665298462
1740240355077573000,11.663572998046876,-1.6792901754379272,-1.936372995376587,1.0813286304473877
1740240355087636000,11.673635986328126,-1.6242578029632568,-2.097846031188965,1.1435179710388184
1740240355097700000,11.6837001953125,-1.5512393712997437,-2.192884683609009,1.2156355381011963
1740240355107763000,11.693762939453125,-1.463269829750061,-2.267223596572876,1.247873067855835
1740240355117826000,11.703825927734375,-1.3812191486358643,-2.368161201477051,1.2268309593200684
1740240355127889200,11.71388916015625,-1.3015861511230469,-2.507821559906006,1.1721112728118896
1740240355137952000,11.723951904296875,-1.2283835411071777,-2.648317337036133,1.1031322479248047
1740240355148015000,11.73401513671875,-1.172135829925537,-2.821577310562134,1.049391508102417
1740240355158079200,11.744079345703126,-1.1011793613433838,-3.0074386596679688,1.0469945669174194
1740240355168142000,11.75414208984375,-1.014062523841858,-3.217442512512207,1.0636837482452393
1740240355178205000,11.764204833984374,-0.9233049154281616,-3.430415153503418,1.071984887123108
1740240355188268300,11.774268310546875,-0.8308146595954895,-3.571493625640869,1.0918965339660645
1740240355198331100,11.7843310546875,-0.7377123236656189,-3.758051872253418,1.084946870803833
1740240355208395000,11.79439501953125,-0.6554179787635803,-3.9883599281311035,1.0703405141830444
1740240355218458000,11.8044580078125,-0.5880579352378845,-4.208824157714844,1.0439929962158203
1740240355228521200,11.814521240234376,-0.5190117359161377,-4.371140956878662,0.997682511806488
1740240355238584000,11.824583984375,-0.463761568069458,-4.38553524017334,0.9544857144355774
1740240355248647000,11.83464697265625,-0.41366085410118103,-4.277838230133057,0.9213599562644958
1740240355258710300,11.844710205078124,-0.36753132939338684,-4.04132080078125,0.9145429134368896
1740240355268774100,11.854774169921875,-0.29701268672943115,-3.7675321102142334,0.8949993252754211
1740240355278837200,11.864837158203125,-0.17280644178390503,-3.529824733734131,0.879957377910614
1740240355288900000,11.874900146484375,-0.02668916806578636,-3.36318302154541,0.8713037371635437
1740240355298963000,11.884962890625,0.10667692869901657,-3.2730438709259033,0.8186448812484741
1740240355309026000,11.895026123046875,0.2103056013584137,-3.255650758743286,0.7588632702827454
1740240355319090200,11.905090087890626,0.26840922236442566,-3.3096704483032227,0.7177742123603821
1740240355329153000,11.915153076171874,0.2889999747276306,-3.3355934619903564,0.6801397800445557
1740240355339216000,11.9252158203125,0.301951140165329,-3.3406577110290527,0.6414424180984497
1740240355349279200,11.935279296875,0.29666849970817566,-3.2579431533813477,0.6202641725540161
1740240355359342000,11.945342041015625,0.2844136357307434,-3.101330280303955,0.6334398984909058
1740240355369405000,11.955405029296875,0.2735580503940582,-2.939235210418701,0.6880190372467041
1740240355379469000,11.965468994140625,0.26554805040359497,-2.8221189975738525,0.7447802424430847
1740240355389532200,11.9755322265625,0.307833731174469,-2.7386574745178223,0.7824088335037231
1740240355399595000,11.985594970703126,0.3769330382347107,-2.6813666820526123,0.787063717842102
1740240355409658000,11.995658203125,0.45778101682662964,-2.6062822341918945,0.766230583190918
1740240355419721200,12.00572119140625,0.5543199181556702,-2.556936264038086,0.7284107804298401
1740240355429784000,12.0157841796875,0.648845911026001,-2.559121608734131,0.6487417817115784
1740240355439848200,12.02584814453125,0.7051931023597717,-2.553554058074951,0.5369913578033447
1740240355449911000,12.0359111328125,0.7352226376533508,-2.514193058013916,0.46449580788612366
1740240355459974100,12.04597412109375,0.7530627250671387,-2.4250028133392334,0.4370395839214325
1740240355470037000,12.056037109375,0.7597334384918213,-2.28884220123291,0.40207627415657043
1740240355480100000,12.06610009765625,0.7248900532722473,-2.0609467029571533,0.34949061274528503
1740240355490164000,12.0761640625,0.6709544062614441,-1.7624040842056274,0.3127182126045227
1740240355500227000,12.08622705078125,0.6350386738777161,-1.5016242265701294,0.2935751676559448
1740240355510290200,12.096290283203125,0.6307275295257568,-1.2826327085494995,0.2904464900493622
1740240355520353000,12.10635302734375,0.6535146832466125,-1.101670503616333,0.27588406205177307
1740240355530416000,12.116416015625,0.7056039571762085,-0.9999380111694336,0.2715686559677124
1740240355540479200,12.126479248046875,0.7579326033592224,-0.9980331659317017,0.24896025657653809
1740240355550543000,12.136543212890626,0.8108283281326294,-1.0327122211456299,0.21051618456840515
1740240355560606000,12.14660595703125,0.852825939655304,-1.030471682548523,0.16392089426517487
1740240355570669000,12.1566689453125,0.873816967010498,-0.9638252854347229,0.1313970386981964
1740240355580732200,12.166732177734374,0.8855427503585815,-0.8313279747962952,0.10750269144773483
1740240355590795000,12.176794921875,0.8857843279838562,-0.6517878174781799,0.08502934128046036
1740240355600859100,12.186859130859375,0.8554168343544006,-0.4362088739871979,0.06946287304162979
1740240355610922000,12.196921875,0.8366851806640625,-0.2701953947544098,0.07208448648452759
1740240355620985000,12.206985107421875,0.8290489912033081,-0.19486521184444427,0.06697621196508408
1740240355631048200,12.217048095703126,0.8371857404708862,-0.16348092257976532,0.07599660009145737
1740240355641111000,12.227111083984376,0.8524613380432129,-0.18630550801753998,0.12210840731859207
1740240355651174100,12.237174072265624,0.8706446290016174,-0.25336071848869324,0.18438217043876648
1740240355661238300,12.24723828125,0.8998717665672302,-0.3226180672645569,0.21769748628139496
1740240355671301000,12.257301025390625,0.9242748022079468,-0.3503548800945282,0.22008422017097473
1740240355681364000,12.267364013671875,0.9265869855880737,-0.2723330855369568,0.21434378623962402
1740240355691427000,12.277427001953125,0.9181703329086304,-0.14221182465553284,0.20366159081459045
1740240355701490200,12.287490234375,0.9085545539855957,-0.0005477783270180225,0.17856404185295105
1740240355711554000,12.297553955078126,0.8964049816131592,0.13853740692138672,0.17066031694412231
1740240355721617000,12.307616943359376,0.891077995300293,0.18813014030456543,0.18647673726081848
1740240355731680300,12.31768017578125,0.8861961364746094,0.09577863663434982,0.2316351681947708
1740240355741743000,12.3277431640625,0.9029536247253418,-0.05006372556090355,0.3006023168563843
1740240355751806000,12.337805908203125,0.9312667846679688,-0.1896386742591858,0.3997616469860077
1740240355761869300,12.347869384765625,0.9658824801445007,-0.31715670228004456,0.5105238556861877
1740240355771933200,12.35793310546875,1.0023982524871826,-0.33841565251350403,0.560558557510376
1740240355781996000,12.36799609375,1.0303618907928467,-0.33016541600227356,0.5601276159286499
1740240355792059100,12.37805908203125,1.0430327653884888,-0.265129953622818,0.5002999305725098
1740240355802122200,12.388122314453126,1.057985782623291,-0.10165741294622421,0.4307198226451874
1740240355812185000,12.39818505859375,1.087627649307251,0.03295818716287613,0.38406896591186523
1740240355822248000,12.408248046875,1.1091276407241821,0.15429750084877014,0.41180574893951416
1740240355832312000,12.41831201171875,1.1296813488006592,0.1913236826658249,0.5025753378868103
1740240355842374700,12.428374755859375,1.1396104097366333,0.18338076770305634,0.605529248714447
1740240355852437800,12.438437744140625,1.1608589887619019,0.14731943607330322,0.7105342149734497
1740240355862500600,12.44850048828125,1.1838868856430054,0.09115801006555557,0.7976851463317871
1740240355872563700,12.458563720703125,1.215267539024353,0.052789315581321716,0.8639922738075256
1740240355882627800,12.4686279296875,1.2445558309555054,0.07214799523353577,0.890401303768158
1740240355892690700,12.478690673828124,1.2771023511886597,0.13114847242832184,0.9088897705078125
1740240355902753500,12.48875341796875,1.2961550951004028,0.23603928089141846,0.9256876707077026
1740240355912816600,12.498816650390625,1.293224573135376,0.3336643576622009,0.9126509428024292
1740240355922879700,12.508879638671875,1.277806043624878,0.40086111426353455,0.899787425994873
1740240355932942600,12.518942626953125,1.2713814973831177,0.3964778184890747,0.9042617678642273
1740240355943006700,12.5290068359375,1.2649211883544922,0.3784249424934387,0.9346407651901245
1740240355953069600,12.539069580078126,1.23258376121521,0.37909606099128723,1.013363003730774
1740240355963132700,12.549132568359376,1.2418650388717651,0.3562013804912567,1.0954060554504395
1740240355973195500,12.559195556640624,1.2472174167633057,0.39334237575531006,1.1559573411941528
1740240355983258600,12.569258544921874,1.2684578895568848,0.42650991678237915,1.1757216453552246
1740240355993322500,12.579322509765625,1.2558566331863403,0.5090479254722595,1.1853854656219482
1740240356003385900,12.5893857421875,1.2407811880111694,0.5939967036247253,1.182517170906067
